Question,Answer,CorrectResponse,CorrectAnswer,IncorrectAnswer,InfoRepeated,Task,TrialType,StimType,Order,CurrentImage,CurrentX,CurrentY,Jitter,Section,comprehension_questions_1.thisRepN,comprehension_questions_1.thisTrialN,comprehension_questions_1.thisN,comprehension_questions_1.thisIndex,comprehension_questions_2.thisRepN,comprehension_questions_2.thisTrialN,comprehension_questions_2.thisN,comprehension_questions_2.thisIndex,enc_practice_trials.thisRepN,enc_practice_trials.thisTrialN,enc_practice_trials.thisN,enc_practice_trials.thisIndex,experiment_information_text.started,experiment_information_text.stopped,experiment_information_key.keys,experiment_information_key.rt,experiment_information_key.started,experiment_information_key.stopped,experiment_information_continue.started,experiment_information_continue.stopped,comprehension_question_text.started,comprehension_question_text.stopped,comprehension_question_answers.started,comprehension_question_answers.stopped,comprehension_key.keys,comprehension_key.corr,comprehension_key.rt,comprehension_key.started,comprehension_key.stopped,comprehension_feedback_text.started,comprehension_feedback_text.stopped,comprehension_continue_key.keys,comprehension_continue_key.started,comprehension_continue_key.stopped,comprehension_continue_text.started,comprehension_continue_text.stopped,comprehension_repeat_text.started,comprehension_repeat_text.stopped,lab_thanks.started,lab_thanks.stopped,lab_key.keys,lab_key.rt,lab_key.started,lab_key.stopped,lab_introduction_continue.started,lab_introduction_continue.stopped,lab_members.started,lab_members.stopped,start_encoding_text.started,start_encoding_text.stopped,enc_instructions_1_text.started,enc_instructions_1_text.stopped,enc_instructions_1_image.started,enc_instructions_1_image.stopped,enc_instructions_1_key.keys,enc_instructions_1_key.rt,enc_instructions_1_key.started,enc_instructions_1_key.stopped,instructions_1_continue.started,instructions_1_continue.stopped,enc_instructions_2_text.started,enc_instructions_2_text.stopped,enc_instructions_2_image.started,enc_instructions_2_image.stopped,enc_instructions_2_key.keys,enc_instructions_2_key.rt,enc_instructions_2_key.started,enc_instructions_2_key.stopped,instructions_2_continue.started,instructions_2_continue.stopped,enc_instructions_3_text.started,enc_instructions_3_text.stopped,enc_instructions_3_key.keys,enc_instructions_3_key.rt,enc_instructions_3_key.started,enc_instructions_3_key.stopped,enc_instructions_3_continue.started,enc_instructions_3_continue.stopped,comprehension_continue_key.rt,start_practice_text.started,start_practice_text.stopped,enc_fx_interior.started,enc_fx_interior.stopped,enc_fx_cross.started,enc_fx_cross.stopped,enc_fx_key.keys,enc_fx_key.started,enc_fx_key.stopped,enc_trial_interior.started,enc_trial_interior.stopped,enc_trial_main_image.started,enc_trial_main_image.stopped,enc_trial_key.keys,enc_trial_key.started,enc_trial_key.stopped,enc_practice_feedback_interior.started,enc_practice_feedback_interior.stopped,enc_practice_feedback_image.started,enc_practice_feedback_image.stopped,enc_practice_feedback_text.started,enc_practice_feedback_text.stopped,Azonosító kód*,A vizsgálat feltételeibe beleegyezem. (igen/nem)*,Az adatkezelési feltételeket elfogadom. (igen/nem)*,date,expName,psychopyVersion,frameRate,
,,,,,,,,,,,,,,,,,,,,,,,,,,,21.72132059998694,None,right,0.04801910000969656,31.65081329998793,None,,,,,,,,,,,,,,,,,,,,,,,,,,,,,,,,,,,,,,,,,,,,,,,,,,,,,,,,,,,,,,,,,,,,,,,,,,,,,,,,,,,,1243,igen,igen,2020_Aug_18_1132,TRK-online,2020.1.3,59.999879995833815,
Mennyi időt vesz igénybe a vizsgálat? Válaszát jelölje a megadott billentyűk egyikével. ,D:20-30 perc    F: 50-60 perc    J: 70-80 perc,f,A helyes válasz: 50-60 perc,A helyes válasz: 50-60 perc,"Kérjük, figyelmesen olvassa végig az alábbi instrukciókat!

A vizsgálathoz használjon asztali számítógépet vagy laptopot. A vizsgálat nem végezhető el mobil eszközön, például okostelefonon vagy táblagépen. A feladatok elvégzéséhez szüksége lesz működő billentyűzetre és stabil internet kapcsolatra. Az optimális eredmény elérése érdekében Google Chrome, Firefox vagy Safari böngésző használata javasolt. Kérjük, használja a teljes képernyő módot.
A kísérlet teljes körű, zavartalan figyelmet igényel. A vizsgálat két feladatból áll, és elvégzése 50-60 percet vesz igénybe. Bizonyosodjon meg róla, hogy elég időt tud szánni a vizsgálatra. Ügyeljen arra, hogy telefont, vagy más eszközöket közben ne használjon, és kerülje a másokkal való interakciót.

A vizsgálat két feladatból áll, melyek során absztrakt képeket kell kiválogatnia a megadott szempontok szerint. A feladatok alatt és a feladatok között is lesz lehetősége rövid pihenőt tartani. ",,,,,,,,,,0,0,0,0,,,,,,,,,,,,,,,31.65081329998793,None,31.817520899989177,None,31.817520899989177,None,f,1,0.6342845000035595,32.80083530000411,None,33.46753209998133,None,None,36.484221379994416,None,36.484221379994416,None,35.500907699984964,35.500907699984964,,,,,,,,,,,,,,,,,,,,,,,,,,,,,,,,,,,,,,,,,,,,,,,,,,,,,,,,,,,,,,,,1243,igen,igen,2020_Aug_18_1132,TRK-online,2020.1.3,59.999879995833815,
"Megbizonyosodott róla, hogy biztosítottak a vizsgálat elvégzéséhez szükséges feltételek? Válaszát jelölje a megadott billentyűk egyikével. ","F: Nem, nincs lehetőségem nyugodt körülmények között elvégezni a feladatot.    J: Igen, körülményeim nyugodtak, az internet kapcsolat stabil, a feladatokra tudok szánni 60 percet.",j,Köszönjük!,"Bizonyosodjon meg róla, hogy elég időt tud a vizsgálatra szánni. ","Kérjük, figyelmesen olvassa végig az alábbi instrukciókat!

A vizsgálathoz használjon asztali számítógépet vagy laptopot. A vizsgálat nem végezhető el mobil eszközön, például okostelefonon vagy táblagépen. A feladatok elvégzéséhez szüksége lesz működő billentyűzetre és stabil internet kapcsolatra. Az optimális eredmény elérése érdekében Google Chrome, Firefox vagy Safari böngésző használata javasolt. Kérjük, használja a teljes képernyő módot.
A kísérlet teljes körű, zavartalan figyelmet igényel. A vizsgálat két feladatból áll, és elvégzése 50-60 percet vesz igénybe. Bizonyosodjon meg róla, hogy elég időt tud szánni a vizsgálatra. Ügyeljen arra, hogy telefont, vagy más eszközöket közben ne használjon, és kerülje a másokkal való interakciót.

A vizsgálat két feladatból áll, melyek során absztrakt képeket kell kiválogatnia a megadott szempontok szerint. A feladatok alatt és a feladatok között is lesz lehetősége rövid pihenőt tartani. ",,,,,,,,,,0,1,1,1,,,,,,,,,,,,,,,,,36.50089379999554,None,36.50089379999554,None,j,1,0.15870729999733157,37.48427039998933,None,37.66759900000761,None,None,40.6510165799933,None,40.6510165799933,None,39.667700199992396,39.667700199992396,,,,,,,,,,,,,,,,,,,,,,,,,,,,,,,,,,,,,,,,,,,,,,,,,,,,,,,,,,,,,,,,1243,igen,igen,2020_Aug_18_1132,TRK-online,2020.1.3,59.999879995833815,
,,,,,,,,,,,,,,,,,,,,,,,,,,,,,,,,,,,,,,,,,,,,,,,,,,,,,40.650989999994636,None,right,1.2619849999900907,40.650989999994636,None,,,,,,,,,,,,,,,,,,,,,,,,,,,,,,,,,,,,,,,,,,,,,,,,,,,,,,,,,,1243,igen,igen,2020_Aug_18_1132,TRK-online,2020.1.3,59.999879995833815,
,,,,,,,,,,,,,,,,,,,,,,,,,,,,,,,,,,,,,,,,,,,,,,,,,,,,,,,,,,,41.63438099998166,None,40.650989999994636,None,41.95106160000432,None,43.45104469999205,None,43.45104469999205,None,right,0.6723748999938834,48.43451449999702,None,,,,,,,,,,,,,,,,,,,,,,,,,,,,,,,,,,,,,,,,,,,,1243,igen,igen,2020_Aug_18_1132,TRK-online,2020.1.3,59.999879995833815,
,,,,,,,,,,,,,,,,,,,,,,,,,,,,,,,,,,,,,,,,,,,,,,,,,,,,,,,,,,,,,,,,,,,,,,,,,48.43451449999702,None,49.13452349998988,None,49.13452349998988,None,right,0.08521380001911893,54.1179673000006,None,,,,,,,,,,,,,,,,,,,,,,,,,,,,,,,,,,1243,igen,igen,2020_Aug_18_1132,TRK-online,2020.1.3,59.999879995833815,
,,,,,,,,,,,,,,,,,,,,,,,,,,,,,,,,,,,,,,,,,,,,,,,,,,,,,,,,,,,,,,,,,,,,,,,,,,,,,,,,,,,54.1179673000006,None,54.23466429999098,None,right,0.4486410999961663,59.218173600005684,None,,,,,,,,,,,,,,,,,,,,,,,,,,1243,igen,igen,2020_Aug_18_1132,TRK-online,2020.1.3,59.999879995833815,
"Mely billentyű jelzi azokat a képeket, amelyek nem maradhatnak a bemutatott helyen?",D billentyű    F billentyű   J billentyű    K billentyű,f,A helyes válasz: F billentyű,A helyes válasz: F billentyű,"Az első feladat nagyjából 25 percet vesz igénybe, közben két rövid szünettel. Ügyeljen, hogy ezek a szünetek ne legyenek 2 percnél hosszabbak. 

A 'J' billentyűvel jelölje azokat a képeket, amelyek maradhatnak a galériában, a bemutatott helyen.

Az 'F' billentyűvel jelölje a képeket, amelyek nem maradnak kiállítva a bemutatott helyen. ",,,,,,,,,,,,,,0,0,0,1,,,,,,,,,,,,,59.70143829999142,None,59.70143829999142,None,j,0,1.0622159999911673,60.68479870000738,None,61.784841599990614,None,right,64.78489479998825,None,64.78489479998825,None,63.80152939999243,None,,,,,,,,,,,,,,,,,,,,,,,,,,,,,,,,,,,,,,,59.218173600005684,None,0.08186230002320372,,,,,,,,,,,,,,,,,,,,,,,1243,igen,igen,2020_Aug_18_1132,TRK-online,2020.1.3,59.999879995833815,
"Mely billentyű jelzi azokat a képeket, amelyek maradhatnak a galériában, a bemutatott helyen?",D billentyű    F billentyű   J billentyű    K billentyű,j,A helyes válasz: J billentyű.,A helyes válasz: J billentyű.,"Az első feladat nagyjából 25 percet vesz igénybe, közben két rövid szünettel. Ügyeljen, hogy ezek a szünetek ne legyenek 2 percnél hosszabbak. 

A 'J' billentyűvel jelölje azokat a képeket, amelyek maradhatnak a galériában, a bemutatott helyen.

Az 'F' billentyűvel jelölje a képeket, amelyek nem maradnak kiállítva a bemutatott helyen. ",,,,,,,,,,,,,,0,1,1,0,,,,,,,,,,,,,64.90153509998345,None,64.90153509998345,None,j,1,0.4229136999929324,65.86825329999556,None,66.31828360000509,None,None,69.30164618000853,None,69.30164618000853,None,68.31832229997963,68.31832229997963,,,,,,,,,,,,,,,,,,,,,,,,,,,,,,,,,,,,,,,,,,,,,,,,,,,,,,,,,,,,,,,,1243,igen,igen,2020_Aug_18_1132,TRK-online,2020.1.3,59.999879995833815,
,,,,,,EncodingPractice,OBJ,LURE,1,stimuli/fractals/166a.jpg,-0.0781,0.4167,1500,Encoding,,,,,,,,,0,0,0,0,,,,,,,,,,,,,,,,,,,,,,,,,,,,,,,,,,,,,,,,,,,,,,,,,,,,,,,,,,,,,,,,,,,,69.3016648000048,None,70.31832970000687,None,70.31832970000687,None,None,70.31832970000687,None,71.86839369998779,None,71.86839369998779,None,None,71.86839369998779,None,74.8851236999908,None,74.8851236999908,None,74.8851236999908,None,1243,igen,igen,2020_Aug_18_1132,TRK-online,2020.1.3,59.999879995833815,
,,,,,,EncodingPractice,OBJ,TARGET,1,stimuli/fractals/167a.jpg,0.2344,0.4167,500,Encoding,,,,,,,,,0,1,1,1,,,,,,,,,,,,,,,,,,,,,,,,,,,,,,,,,,,,,,,,,,,,,,,,,,,,,,,,,,,,,,,,,,,,,,75.83515490000718,None,75.83515490000718,None,None,75.83515490000718,None,76.35181520000333,None,76.35181520000333,None,None,76.35181520000333,None,79.36859179998282,None,79.36859179998282,None,79.36859179998282,None,1243,igen,igen,2020_Aug_18_1132,TRK-online,2020.1.3,59.999879995833815,
,,,,,,EncodingPractice,OBJ,FOIL,1,stimuli/fractals/149a.jpg,0.2344,-0.1389,1000,Encoding,,,,,,,,,0,2,2,2,,,,,,,,,,,,,,,,,,,,,,,,,,,,,,,,,,,,,,,,,,,,,,,,,,,,,,,,,,,,,,,,,,,,,,80.35192869999446,None,80.35192869999446,None,None,80.35192869999446,None,81.36861999999383,None,81.36861999999383,None,None,81.36861999999383,None,84.38533180000377,None,84.38533180000377,None,84.38533180000377,None,1243,igen,igen,2020_Aug_18_1132,TRK-online,2020.1.3,59.999879995833815,
,,,,,,EncodingPractice,LOC,FOIL,1,stimuli/fractals/148b.jpg,0.2344,-0.1389,1000,Encoding,,,,,,,,,0,3,3,3,,,,,,,,,,,,,,,,,,,,,,,,,,,,,,,,,,,,,,,,,,,,,,,,,,,,,,,,,,,,,,,,,,,,,,85.36868769998546,None,85.36868769998546,None,None,85.36868769998546,None,86.38536879999447,None,86.38536879999447,None,None,86.38536879999447,None,89.40211029999773,None,89.40211029999773,None,89.40211029999773,None,1243,igen,igen,2020_Aug_18_1132,TRK-online,2020.1.3,59.999879995833815,
