Question,Answer,CorrectResponse,CorrectAnswer,IncorrectAnswer,InfoRepeated,Task,TrialType,StimType,Order,CurrentImage,CurrentX,CurrentY,Jitter,Section,comprehension_questions_1.thisRepN,comprehension_questions_1.thisTrialN,comprehension_questions_1.thisN,comprehension_questions_1.thisIndex,comprehension_questions_2.thisRepN,comprehension_questions_2.thisTrialN,comprehension_questions_2.thisN,comprehension_questions_2.thisIndex,enc_practice_trials.thisRepN,enc_practice_trials.thisTrialN,enc_practice_trials.thisN,enc_practice_trials.thisIndex,experiment_information_text.started,experiment_information_text.stopped,experiment_information_key.keys,experiment_information_key.rt,experiment_information_key.started,experiment_information_key.stopped,experiment_information_continue.started,experiment_information_continue.stopped,comprehension_question_text.started,comprehension_question_text.stopped,comprehension_question_answers.started,comprehension_question_answers.stopped,comprehension_key.keys,comprehension_key.corr,comprehension_key.rt,comprehension_key.started,comprehension_key.stopped,comprehension_feedback_text.started,comprehension_feedback_text.stopped,comprehension_continue_key.keys,comprehension_continue_key.started,comprehension_continue_key.stopped,comprehension_continue_text.started,comprehension_continue_text.stopped,comprehension_repeat_text.started,comprehension_repeat_text.stopped,lab_thanks.started,lab_thanks.stopped,lab_key.keys,lab_key.rt,lab_key.started,lab_key.stopped,lab_introduction_continue.started,lab_introduction_continue.stopped,lab_members.started,lab_members.stopped,start_encoding_text.started,start_encoding_text.stopped,enc_instructions_1_text.started,enc_instructions_1_text.stopped,enc_instructions_1_image.started,enc_instructions_1_image.stopped,enc_instructions_1_key.keys,enc_instructions_1_key.rt,enc_instructions_1_key.started,enc_instructions_1_key.stopped,instructions_1_continue.started,instructions_1_continue.stopped,enc_instructions_2_text.started,enc_instructions_2_text.stopped,enc_instructions_2_image.started,enc_instructions_2_image.stopped,enc_instructions_2_key.keys,enc_instructions_2_key.rt,enc_instructions_2_key.started,enc_instructions_2_key.stopped,instructions_2_continue.started,instructions_2_continue.stopped,enc_instructions_3_text.started,enc_instructions_3_text.stopped,enc_instructions_3_key.keys,enc_instructions_3_key.rt,enc_instructions_3_key.started,enc_instructions_3_key.stopped,enc_instructions_3_continue.started,enc_instructions_3_continue.stopped,comprehension_continue_key.rt,start_practice_text.started,start_practice_text.stopped,enc_fx_interior.started,enc_fx_interior.stopped,enc_fx_cross.started,enc_fx_cross.stopped,enc_fx_key.keys,enc_fx_key.started,enc_fx_key.stopped,enc_trial_interior.started,enc_trial_interior.stopped,enc_trial_main_image.started,enc_trial_main_image.stopped,enc_trial_key.keys,enc_trial_key.started,enc_trial_key.stopped,enc_practice_feedback_interior.started,enc_practice_feedback_interior.stopped,enc_practice_feedback_image.started,enc_practice_feedback_image.stopped,enc_practice_feedback_text.started,enc_practice_feedback_text.stopped,Azonosító kód*,A vizsgálat feltételeibe beleegyezem. (igen/nem)*,Az adatkezelési feltételeket elfogadom. (igen/nem)*,date,expName,psychopyVersion,frameRate,
,,,,,,,,,,,,,,,,,,,,,,,,,,,13.906294600000365,None,right,1.6984542000000147,23.828997999999956,None,,,,,,,,,,,,,,,,,,,,,,,,,,,,,,,,,,,,,,,,,,,,,,,,,,,,,,,,,,,,,,,,,,,,,,,,,,,,,,,,,,,,office_test,i,i,2020_Aug_14_1352,TRK-online,2020.1.3,60.03662233979418,
Mennyi időt vesz igénybe a vizsgálat? Válaszát jelölje a megadott billentyűk egyikével. ,D:20-30 perc    F: 50-60 perc    J: 70-80 perc,f,A helyes válasz: 50-60 perc,A helyes válasz: 50-60 perc,"Kérjük, figyelmesen olvassa végig az alábbi instrukciókat!

A vizsgálathoz használjon asztali számítógépet vagy laptopot. A vizsgálat nem végezhető el mobil eszközön, például okostelefonon vagy táblagépen. A feladatok elvégzéséhez szüksége lesz működő billentyűzetre és stabil internet kapcsolatra. Az optimális eredmény elérése érdekében Google Chrome, Firefox vagy Safari böngésző használata javasolt. Kérjük, használja a teljes képernyő módot.
A kísérlet teljes körű, zavartalan figyelmet igényel. A vizsgálat két feladatból áll, és elvégzése 50-60 percet vesz igénybe. Bizonyosodjon meg róla, hogy elég időt tud szánni a vizsgálatra. Ügyeljen arra, hogy telefont, vagy más eszközöket közben ne használjon, és kerülje a másokkal való interakciót.

A vizsgálat két feladatból áll, melyek során absztrakt képeket kell kiválogatnia a megadott szempontok szerint. A feladatok alatt és a feladatok között is lesz lehetősége rövid pihenőt tartani. ",,,,,,,,,,0,0,0,0,,,,,,,,,,,,,,,23.828997999999956,None,25.579008600000634,None,25.579008600000634,None,f,1,1.6451260000003458,26.562284100000397,None,28.245574999999917,None,None,31.245494479999888,None,31.245494479999888,None,30.262192200000754,30.262192200000754,,,,,,,,,,,,,,,,,,,,,,,,,,,,,,,,,,,,,,,,,,,,,,,,,,,,,,,,,,,,,,,,office_test,i,i,2020_Aug_14_1352,TRK-online,2020.1.3,60.03662233979418,
"Megbizonyosodott róla, hogy biztosítottak a vizsgálat elvégzéséhez szükséges feltételek? Válaszát jelölje a megadott billentyűk egyikével. ","F: Nem, nincs lehetőségem nyugodt körülmények között elvégezni a feladatot.    J: Igen, körülményeim nyugodtak, az internet kapcsolat stabil, a feladatokra tudok szánni 60 percet.",j,Köszönjük!,"Bizonyosodjon meg róla, hogy elég időt tud a vizsgálatra szánni. ","Kérjük, figyelmesen olvassa végig az alábbi instrukciókat!

A vizsgálathoz használjon asztali számítógépet vagy laptopot. A vizsgálat nem végezhető el mobil eszközön, például okostelefonon vagy táblagépen. A feladatok elvégzéséhez szüksége lesz működő billentyűzetre és stabil internet kapcsolatra. Az optimális eredmény elérése érdekében Google Chrome, Firefox vagy Safari böngésző használata javasolt. Kérjük, használja a teljes képernyő módot.
A kísérlet teljes körű, zavartalan figyelmet igényel. A vizsgálat két feladatból áll, és elvégzése 50-60 percet vesz igénybe. Bizonyosodjon meg róla, hogy elég időt tud szánni a vizsgálatra. Ügyeljen arra, hogy telefont, vagy más eszközöket közben ne használjon, és kerülje a másokkal való interakciót.

A vizsgálat két feladatból áll, melyek során absztrakt képeket kell kiválogatnia a megadott szempontok szerint. A feladatok alatt és a feladatok között is lesz lehetősége rövid pihenőt tartani. ",,,,,,,,,,0,1,1,1,,,,,,,,,,,,,,,,,31.26219990000027,None,31.26219990000027,None,j,1,0.2818869000002451,32.245501200000035,None,32.56214660000023,None,None,35.5453965800004,None,35.5453965800004,None,34.56210220000048,34.56210220000048,,,,,,,,,,,,,,,,,,,,,,,,,,,,,,,,,,,,,,,,,,,,,,,,,,,,,,,,,,,,,,,,office_test,i,i,2020_Aug_14_1352,TRK-online,2020.1.3,60.03662233979418,
,,,,,,,,,,,,,,,,,,,,,,,,,,,,,,,,,,,,,,,,,,,,,,,,,,,,,35.54539710000063,None,right,2.2681783999996696,35.54539710000063,None,,,,,,,,,,,,,,,,,,,,,,,,,,,,,,,,,,,,,,,,,,,,,,,,,,,,,,,,,,office_test,i,i,2020_Aug_14_1352,TRK-online,2020.1.3,60.03662233979418,
,,,,,,,,,,,,,,,,,,,,,,,,,,,,,,,,,,,,,,,,,,,,,,,,,,,,,,,,,,,36.52874610000072,None,35.54539710000063,None,37.87867809999989,None,39.37867660000029,None,39.37867660000029,None,right,0.5015360999996119,44.361870000000636,None,,,,,,,,,,,,,,,,,,,,,,,,,,,,,,,,,,,,,,,,,,,,office_test,i,i,2020_Aug_14_1352,TRK-online,2020.1.3,60.03662233979418,
,,,,,,,,,,,,,,,,,,,,,,,,,,,,,,,,,,,,,,,,,,,,,,,,,,,,,,,,,,,,,,,,,,,,,,,,,44.361870000000636,None,44.87855370000034,None,44.87855370000034,None,right,0.921835000000101,49.86174780000056,None,,,,,,,,,,,,,,,,,,,,,,,,,,,,,,,,,,office_test,i,i,2020_Aug_14_1352,TRK-online,2020.1.3,60.03662233979418,
,,,,,,,,,,,,,,,,,,,,,,,,,,,,,,,,,,,,,,,,,,,,,,,,,,,,,,,,,,,,,,,,,,,,,,,,,,,,,,,,,,,49.86174780000056,None,50.811758400000144,None,right,0.908450100000664,55.794930200000636,None,,,,,,,,,,,,,,,,,,,,,,,,,,office_test,i,i,2020_Aug_14_1352,TRK-online,2020.1.3,60.03662233979418,
"Mely billentyű jelzi azokat a képeket, amelyek maradhatnak a galériában, a bemutatott helyen?",D billentyű    F billentyű   J billentyű    K billentyű,j,A helyes válasz: J billentyű.,A helyes válasz: J billentyű.,"Az első feladat nagyjából 25 percet vesz igénybe, közben két rövid szünettel. Ügyeljen, hogy ezek a szünetek ne legyenek 2 percnél hosszabbak. 

A 'J' billentyűvel jelölje azokat a képeket, amelyek maradhatnak a galériában, a bemutatott helyen.

Az 'F' billentyűvel jelölje a képeket, amelyek nem maradnak kiállítva a bemutatott helyen. ",,,,,,,,,,,,,,0,0,0,0,,,,,,,,,,,,,56.76160609999988,None,56.76160609999988,None,j,1,0.1663856000004671,57.744926600000326,None,57.94493599999987,None,None,60.944817580000475,None,60.944817580000475,None,59.96151950000058,59.96151950000058,,,,,,,,,,,,,,,,,,,,,,,,,,,,,,,,,,,,,,,55.794930200000636,None,,,,,,,,,,,,,,,,,,,,,,,,office_test,i,i,2020_Aug_14_1352,TRK-online,2020.1.3,60.03662233979418,
"Mely billentyű jelzi azokat a képeket, amelyek nem maradhatnak a bemutatott helyen?",D billentyű    F billentyű   J billentyű    K billentyű,f,A helyes válasz: F billentyű,A helyes válasz: F billentyű,"Az első feladat nagyjából 25 percet vesz igénybe, közben két rövid szünettel. Ügyeljen, hogy ezek a szünetek ne legyenek 2 percnél hosszabbak. 

A 'J' billentyűvel jelölje azokat a képeket, amelyek maradhatnak a galériában, a bemutatott helyen.

Az 'F' billentyűvel jelölje a képeket, amelyek nem maradnak kiállítva a bemutatott helyen. ",,,,,,,,,,,,,,0,1,1,1,,,,,,,,,,,,,60.96149260000038,None,60.96149260000038,None,k,0,3.9106002999997145,61.94482020000032,None,65.89474520000022,None,right,68.87796520000029,None,68.87796520000029,None,67.89466510000057,None,,,,,,,,,,,,,,,,,,,,,,,,,,,,,,,,,,,,,,,,,2.969475500000044,,,,,,,,,,,,,,,,,,,,,,,office_test,i,i,2020_Aug_14_1352,TRK-online,2020.1.3,60.03662233979418,
,,,,,,EncodingPractice,OBJ,LURE,1,stimuli/fractals/166a.jpg,-0.0781,0.4167,1500,Encoding,,,,,,,,,0,0,0,0,,,,,,,,,,,,,,,,,,,,,,,,,,,,,,,,,,,,,,,,,,,,,,,,,,,,,,,,,,,,,,,,,,,,71.87791920000018,None,72.89454350000051,None,72.89454350000051,None,None,72.89454350000051,None,74.42748389999997,None,74.42748389999997,None,None,74.42748389999997,None,77.44407390000015,None,77.44407390000015,None,77.44407390000015,None,office_test,i,i,2020_Aug_14_1352,TRK-online,2020.1.3,60.03662233979418,
,,,,,,EncodingPractice,OBJ,TARGET,1,stimuli/fractals/167a.jpg,0.2344,0.4167,500,Encoding,,,,,,,,,0,1,1,1,,,,,,,,,,,,,,,,,,,,,,,,,,,,,,,,,,,,,,,,,,,,,,,,,,,,,,,,,,,,,,,,,,,,,,78.4107152000006,None,78.4107152000006,None,None,78.4107152000006,None,78.9273819,None,78.9273819,None,None,78.9273819,None,81.94396440000037,None,81.94396440000037,None,81.94396440000037,None,office_test,i,i,2020_Aug_14_1352,TRK-online,2020.1.3,60.03662233979418,
,,,,,,,,,,,,,,,,,,,,,,,,,,,,,,,,,,,,,,,,,,,,,,,,,,,,,,,,,,,,,,,,,,,,,,,,,,,,,,,,,,,,,,,,,,,,,,,,82.92728990000069,None,82.92728990000069,None,None,82.92728990000069,None,,,,,,,,,,,,,,,,,,,,,
