Question,Answer,CorrectResponse,CorrectAnswer,IncorrectAnswer,InfoRepeated,Task,TrialType,StimType,Order,CurrentImage,CurrentX,CurrentY,Jitter,Section,comprehension_questions_1.thisRepN,comprehension_questions_1.thisTrialN,comprehension_questions_1.thisN,comprehension_questions_1.thisIndex,comprehension_questions_2.thisRepN,comprehension_questions_2.thisTrialN,comprehension_questions_2.thisN,comprehension_questions_2.thisIndex,enc_practice_trials.thisRepN,enc_practice_trials.thisTrialN,enc_practice_trials.thisN,enc_practice_trials.thisIndex,experiment_information_text.started,experiment_information_text.stopped,experiment_information_key.keys,experiment_information_key.rt,experiment_information_key.started,experiment_information_key.stopped,experiment_information_continue.started,experiment_information_continue.stopped,comprehension_question_text.started,comprehension_question_text.stopped,comprehension_question_answers.started,comprehension_question_answers.stopped,comprehension_key.keys,comprehension_key.corr,comprehension_key.rt,comprehension_key.started,comprehension_key.stopped,comprehension_feedback_text.started,comprehension_feedback_text.stopped,comprehension_continue_key.keys,comprehension_continue_key.rt,comprehension_continue_key.started,comprehension_continue_key.stopped,comprehension_continue_text.started,comprehension_continue_text.stopped,comprehension_repeat_text.started,comprehension_repeat_text.stopped,lab_thanks.started,lab_thanks.stopped,lab_key.keys,lab_key.rt,lab_key.started,lab_key.stopped,lab_introduction_continue.started,lab_introduction_continue.stopped,lab_members.started,lab_members.stopped,start_encoding_text.started,start_encoding_text.stopped,enc_instructions_1_text.started,enc_instructions_1_text.stopped,enc_instructions_1_image.started,enc_instructions_1_image.stopped,enc_instructions_1_key.keys,enc_instructions_1_key.rt,enc_instructions_1_key.started,enc_instructions_1_key.stopped,instructions_1_continue.started,instructions_1_continue.stopped,enc_instructions_2_text.started,enc_instructions_2_text.stopped,enc_instructions_2_image.started,enc_instructions_2_image.stopped,enc_instructions_2_key.keys,enc_instructions_2_key.rt,enc_instructions_2_key.started,enc_instructions_2_key.stopped,instructions_2_continue.started,instructions_2_continue.stopped,enc_instructions_3_text.started,enc_instructions_3_text.stopped,enc_instructions_3_key.keys,enc_instructions_3_key.rt,enc_instructions_3_key.started,enc_instructions_3_key.stopped,enc_instructions_3_continue.started,enc_instructions_3_continue.stopped,start_practice_text.started,start_practice_text.stopped,enc_fx_interior.started,enc_fx_interior.stopped,enc_fx_cross.started,enc_fx_cross.stopped,enc_fx_key.keys,enc_fx_key.started,enc_fx_key.stopped,enc_trial_interior.started,enc_trial_interior.stopped,enc_trial_main_image.started,enc_trial_main_image.stopped,enc_trial_key.keys,enc_trial_key.started,enc_trial_key.stopped,enc_practice_feedback_interior.started,enc_practice_feedback_interior.stopped,enc_practice_feedback_image.started,enc_practice_feedback_image.stopped,enc_practice_feedback_text.started,enc_practice_feedback_text.stopped,Azonosító kód*,A vizsgálat feltételeibe beleegyezem. (igen/nem)*,Az adatkezelési feltételeket elfogadom. (igen/nem)*,date,expName,psychopyVersion,frameRate,
,,,,,,,,,,,,,,,,,,,,,,,,,,,18.082470000000285,None,right,0.5027811999998448,28.01338029999988,None,,,,,,,,,,,,,,,,,,,,,,,,,,,,,,,,,,,,,,,,,,,,,,,,,,,,,,,,,,,,,,,,,,,,,,,,,,,,,,,,,,,,office_test,i,i,2020_Aug_14_1350,TRK-online,2020.1.3,60.006936802103304,
Mennyi időt vesz igénybe a vizsgálat? Válaszát jelölje a megadott billentyűk egyikével. ,D:20-30 perc    F: 50-60 perc    J: 70-80 perc,f,A helyes válasz: 50-60 perc,A helyes válasz: 50-60 perc,"Kérjük, figyelmesen olvassa végig az alábbi instrukciókat!

A vizsgálathoz használjon asztali számítógépet vagy laptopot. A vizsgálat nem végezhető el mobil eszközön, például okostelefonon vagy táblagépen. A feladatok elvégzéséhez szüksége lesz működő billentyűzetre és stabil internet kapcsolatra. Az optimális eredmény elérése érdekében Google Chrome, Firefox vagy Safari böngésző használata javasolt. Kérjük, használja a teljes képernyő módot.
A kísérlet teljes körű, zavartalan figyelmet igényel. A vizsgálat két feladatból áll, és elvégzése 50-60 percet vesz igénybe. Bizonyosodjon meg róla, hogy elég időt tud szánni a vizsgálatra. Ügyeljen arra, hogy telefont, vagy más eszközöket közben ne használjon, és kerülje a másokkal való interakciót.

A vizsgálat két feladatból áll, melyek során absztrakt képeket kell kiválogatnia a megadott szempontok szerint. A feladatok alatt és a feladatok között is lesz lehetősége rövid pihenőt tartani. ",,,,,,,,,,0,0,0,0,,,,,,,,,,,,,,,28.01338029999988,None,28.596706299999823,None,28.596706299999823,None,j,0,3.0161014000004798,29.580019500000162,None,32.61327470000015,None,right,0.6063307000003988,35.62988099999984,None,35.62988099999984,None,34.629878499999904,None,,,,,,,,,,,,,,,,,,,,,,,,,,,,,,,,,,,,,,,,,,,,,,,,,,,,,,,,,,,,,,,office_test,i,i,2020_Aug_14_1350,TRK-online,2020.1.3,60.006936802103304,
"Megbizonyosodott róla, hogy biztosítottak a vizsgálat elvégzéséhez szükséges feltételek? Válaszát jelölje a megadott billentyűk egyikével. ","F: Nem, nincs lehetőségem nyugodt körülmények között elvégezni a feladatot.    J: Igen, körülményeim nyugodtak, az internet kapcsolat stabil, a feladatokra tudok szánni 60 percet.",j,Köszönjük!,"Bizonyosodjon meg róla, hogy elég időt tud a vizsgálatra szánni. ","Kérjük, figyelmesen olvassa végig az alábbi instrukciókat!

A vizsgálathoz használjon asztali számítógépet vagy laptopot. A vizsgálat nem végezhető el mobil eszközön, például okostelefonon vagy táblagépen. A feladatok elvégzéséhez szüksége lesz működő billentyűzetre és stabil internet kapcsolatra. Az optimális eredmény elérése érdekében Google Chrome, Firefox vagy Safari böngésző használata javasolt. Kérjük, használja a teljes képernyő módot.
A kísérlet teljes körű, zavartalan figyelmet igényel. A vizsgálat két feladatból áll, és elvégzése 50-60 percet vesz igénybe. Bizonyosodjon meg róla, hogy elég időt tud szánni a vizsgálatra. Ügyeljen arra, hogy telefont, vagy más eszközöket közben ne használjon, és kerülje a másokkal való interakciót.

A vizsgálat két feladatból áll, melyek során absztrakt képeket kell kiválogatnia a megadott szempontok szerint. A feladatok alatt és a feladatok között is lesz lehetősége rövid pihenőt tartani. ",,,,,,,,,,0,1,1,1,,,,,,,,,,,,,,,,,36.27985770000032,None,36.27985770000032,None,j,1,0.29305399999975634,37.26319340000009,None,37.57981530000052,None,None,,40.56307877000054,None,40.56307877000054,None,39.57978879999973,39.57978879999973,,,,,,,,,,,,,,,,,,,,,,,,,,,,,,,,,,,,,,,,,,,,,,,,,,,,,,,,,,,,,,,office_test,i,i,2020_Aug_14_1350,TRK-online,2020.1.3,60.006936802103304,
,,,,,,,,,,,,,,,,,,,,,,,,,,,,,,,,,,,,,,,,,,,,,,,,,,,,,,40.56309109999984,None,right,1.7194641999994928,40.56309109999984,None,,,,,,,,,,,,,,,,,,,,,,,,,,,,,,,,,,,,,,,,,,,,,,,,,,,,,,,,,office_test,i,i,2020_Aug_14_1350,TRK-online,2020.1.3,60.006936802103304,
,,,,,,,,,,,,,,,,,,,,,,,,,,,,,,,,,,,,,,,,,,,,,,,,,,,,,,,,,,,,41.546437400000286,None,40.56309109999984,None,42.32971610000004,None,43.8296919000004,None,43.8296919000004,None,right,0.9033359000004566,48.812927500000114,None,,,,,,,,,,,,,,,,,,,,,,,,,,,,,,,,,,,,,,,,,,,office_test,i,i,2020_Aug_14_1350,TRK-online,2020.1.3,60.006936802103304,
,,,,,,,,,,,,,,,,,,,,,,,,,,,,,,,,,,,,,,,,,,,,,,,,,,,,,,,,,,,,,,,,,,,,,,,,,,48.812927500000114,None,49.746223799999825,None,49.746223799999825,None,right,1.3147742000001017,54.72944389999975,None,,,,,,,,,,,,,,,,,,,,,,,,,,,,,,,,,office_test,i,i,2020_Aug_14_1350,TRK-online,2020.1.3,60.006936802103304,
,,,,,,,,,,,,,,,,,,,,,,,,,,,,,,,,,,,,,,,,,,,,,,,,,,,,,,,,,,,,,,,,,,,,,,,,,,,,,,,,,,,,54.72944389999975,None,56.06275890000052,None,right,0.40600519999952667,61.04617550000057,None,,,,,,,,,,,,,,,,,,,,,,,,,office_test,i,i,2020_Aug_14_1350,TRK-online,2020.1.3,60.006936802103304,
"Mely billentyű jelzi azokat a képeket, amelyek maradhatnak a galériában, a bemutatott helyen?",D billentyű    F billentyű   J billentyű    K billentyű,j,A helyes válasz: J billentyű.,A helyes válasz: J billentyű.,"Az első feladat nagyjából 25 percet vesz igénybe, közben két rövid szünettel. Ügyeljen, hogy ezek a szünetek ne legyenek 2 percnél hosszabbak. 

A 'J' billentyűvel jelölje azokat a képeket, amelyek maradhatnak a galériában, a bemutatott helyen.

Az 'F' billentyűvel jelölje a képeket, amelyek nem maradnak kiállítva a bemutatott helyen. ",,,,,,,,,,,,,,0,0,0,0,,,,,,,,,,,,,61.51284039999973,None,61.51284039999973,None,j,1,0.3159939999995913,62.496137799999815,None,62.84614500000043,None,None,,65.84620437000049,None,65.84620437000049,None,64.86289600000055,64.86289600000055,,,,,,,,,,,,,,,,,,,,,,,,,,,,,,,,,,,,,,,61.04617550000057,None,,,,,,,,,,,,,,,,,,,,,,,office_test,i,i,2020_Aug_14_1350,TRK-online,2020.1.3,60.006936802103304,
"Mely billentyű jelzi azokat a képeket, amelyek nem maradhatnak a bemutatott helyen?",D billentyű    F billentyű   J billentyű    K billentyű,f,A helyes válasz: F billentyű,A helyes válasz: F billentyű,"Az első feladat nagyjából 25 percet vesz igénybe, közben két rövid szünettel. Ügyeljen, hogy ezek a szünetek ne legyenek 2 percnél hosszabbak. 

A 'J' billentyűvel jelölje azokat a képeket, amelyek maradhatnak a galériában, a bemutatott helyen.

Az 'F' billentyűvel jelölje a képeket, amelyek nem maradnak kiállítva a bemutatott helyen. ",,,,,,,,,,,,,,0,1,1,1,,,,,,,,,,,,,65.84627369999998,None,65.84627369999998,None,j,0,5.046700199999577,66.82951719999983,None,71.91275850000056,None,right,1.1404080000002068,74.89600100000007,None,74.89600100000007,None,73.91268610000043,None,,,,,,,,,,,,,,,,,,,,,,,,,,,,,,,,,,,,,,,,,,,,,,,,,,,,,,,,,,,,,,,office_test,i,i,2020_Aug_14_1350,TRK-online,2020.1.3,60.006936802103304,
,,,,,,EncodingPractice,OBJ,LURE,1,stimuli/fractals/166a.jpg,-0.0781,0.4167,1500,Encoding,,,,,,,,,0,0,0,0,,,,,,,,,,,,,,,,,,,,,,,,,,,,,,,,,,,,,,,,,,,,,,,,,,,,,,,,,,,,,,,,,,,,76.06268350000028,None,77.07930430000033,None,77.07930430000033,None,None,77.07930430000033,None,78.61221840000053,None,78.61221840000053,None,None,78.61221840000053,None,81.62881280000056,None,81.62881280000056,None,81.62881280000056,None,office_test,i,i,2020_Aug_14_1350,TRK-online,2020.1.3,60.006936802103304,
,,,,,,EncodingPractice,OBJ,TARGET,1,stimuli/fractals/167a.jpg,0.2344,0.4167,500,Encoding,,,,,,,,,0,1,1,1,,,,,,,,,,,,,,,,,,,,,,,,,,,,,,,,,,,,,,,,,,,,,,,,,,,,,,,,,,,,,,,,,,,,,,82.59546109999974,None,82.59546109999974,None,None,82.59546109999974,None,83.1121148000002,None,83.1121148000002,None,None,83.1121148000002,None,86.11204679999992,None,86.11204679999992,None,86.11204679999992,None,office_test,i,i,2020_Aug_14_1350,TRK-online,2020.1.3,60.006936802103304,
,,,,,,,,,,,,,,,,,,,,,,,,,,,,,,,,,,,,,,,,,,,,,,,,,,,,,,,,,,,,,,,,,,,,,,,,,,,,,,,,,,,,,,,,,,,,,,,,87.11204850000013,None,87.11204850000013,None,None,87.11204850000013,None,,,,,,,,,,,,,,,,,,,,,
