experiment_information_key.keys,experiment_information_key.rt,comprehension_key.keys,comprehension_key.corr,comprehension_key.rt,comprehension_continue_key.keys,comprehension_questions_1.thisRepN,comprehension_questions_1.thisTrialN,comprehension_questions_1.thisN,comprehension_questions_1.thisIndex,comprehension_questions_1.ran,Question,Answer,CorrectResponse,CorrectAnswer,IncorrectAnswer,InfoRepeated,Azonosító kód*,A vizsgálat feltételeibe beleegyezem. (igen/nem)*,Az adatkezelési feltételeket elfogadom. (igen/nem)*,date,expName,psychopyVersion,OS,frameRate,lab_key.keys,lab_key.rt,enc_instructions_1_key.keys,enc_instructions_1_key.rt,enc_instructions_2_key.keys,enc_instructions_2_key.rt,enc_instructions_3_key.keys,enc_instructions_3_key.rt,comprehension_questions_2.thisRepN,comprehension_questions_2.thisTrialN,comprehension_questions_2.thisN,comprehension_questions_2.thisIndex,comprehension_questions_2.ran,enc_fx_key.keys,enc_trial_key.keys,enc_trial_key.rt,enc_practice_trials.thisRepN,enc_practice_trials.thisTrialN,enc_practice_trials.thisN,enc_practice_trials.thisIndex,enc_practice_trials.ran,Task,TrialType,StimType,Order,CurrentImage,CurrentX,CurrentY,Jitter,Section,end_practice_key.keys,end_practice_key.rt,enc_trials.thisRepN,enc_trials.thisTrialN,enc_trials.thisN,enc_trials.thisIndex,enc_trials.ran,TrialIndex,ScannerRun,Delay,TripletMemberA,TripletMemberB,TripletMemberC,Xcoordinate,Ycoordinate,Xcoordinate_lure1,Ycoordinate_lure1,Xcoordinate_lure2,Ycoordinate_lure2,Xcoordinate_foil,Ycoordinate_foil,enc_fx_key.rt,comprehension_continue_key.rt,comprehension_enc_run.thisRepN,comprehension_enc_run.thisTrialN,comprehension_enc_run.thisN,comprehension_enc_run.thisIndex,comprehension_enc_run.ran,enc_run_end_key.keys,enc_run_end_key.rt,enc_runs.thisRepN,enc_runs.thisTrialN,enc_runs.thisN,enc_runs.thisIndex,enc_runs.ran,inter_task_break_key.keys,inter_task_break_key.rt,rec_instructions_1_key.keys,rec_instructions_1_key.rt,rec_instructions_2_key.keys,rec_instructions_2_key.rt,rec_instructions_3_key.keys,rec_instructions_3_key.rt,rec_instructions_4_key.keys,rec_instructions_4_key.rt,comprehension_questions_3.thisRepN,comprehension_questions_3.thisTrialN,comprehension_questions_3.thisN,comprehension_questions_3.thisIndex,comprehension_questions_3.ran,demo_key.keys,demo_key.rt,demo_trials.thisRepN,demo_trials.thisTrialN,demo_trials.thisN,demo_trials.thisIndex,demo_trials.ran,DemoImage,DemoX,DemoY,InPractice,DemoText,demo_end_key.keys,demo_end_key.rt,rec_fx_key.keys,rec_trial_key.keys,rec_trial_key.rt,rec_practice_trials.thisRepN,rec_practice_trials.thisTrialN,rec_practice_trials.thisN,rec_practice_trials.thisIndex,rec_practice_trials.ran,BlockNr,Filler,rec_practice_blocks.thisRepN,rec_practice_blocks.thisTrialN,rec_practice_blocks.thisN,rec_practice_blocks.thisIndex,rec_practice_blocks.ran,rec_trials.thisRepN,rec_trials.thisTrialN,rec_trials.thisN,rec_trials.thisIndex,rec_trials.ran,EncodingTrialIndex,EncodingStimType,EncodingImage,EncodingXcoordinate,EncodingYcoordinate,rec_blocks.thisRepN,rec_blocks.thisTrialN,rec_blocks.thisN,rec_blocks.thisIndex,rec_blocks.ran,end_rec_run_key.keys,end_rec_run_key.rt,rec_runs.thisRepN,rec_runs.thisTrialN,rec_runs.thisN,rec_runs.thisIndex,rec_runs.ran,rec_fx_key.rt,comprehension_end.thisRepN,comprehension_end.thisTrialN,comprehension_end.thisN,comprehension_end.thisIndex,comprehension_end.ran,end_experiment_key.keys,end_experiment_key.rt
right,32.334295,f,1,5.56731,,0,0,0,0,1,Mennyi időt vesz igénybe a vizsgálat? Válaszát jelölje a megadott billentyűk egyikével. ,D:20-30 perc    F: 50-60 perc    J: 70-80 perc,f,A helyes válasz: 50-60 perc,A helyes válasz: 50-60 perc,"Kérjük, figyelmesen olvassa végig az alábbi instrukciókat!

A vizsgálathoz használjon asztali számítógépet vagy laptopot. A vizsgálat nem végezhető el mobil eszközön, például okostelefonon vagy táblagépen. A feladatok elvégzéséhez szüksége lesz működő billentyűzetre és stabil internet kapcsolatra. Az optimális eredmény elérése érdekében Google Chrome, Firefox vagy Safari böngésző használata javasolt. Kérjük, használja a teljes képernyő módot.
A kísérlet teljes körű, zavartalan figyelmet igényel. A vizsgálat két feladatból áll, és elvégzése 50-60 percet vesz igénybe. Bizonyosodjon meg róla, hogy elég időt tud szánni a vizsgálatra. Ügyeljen arra, hogy telefont, vagy más eszközöket közben ne használjon, és kerülje a másokkal való interakciót.

A vizsgálat két feladatból áll, melyek során absztrakt képeket kell kiválogatnia a megadott szempontok szerint. A feladatok alatt és a feladatok között is lesz lehetősége rövid pihenőt tartani. ",6M9zLYMB,igen,igen,2020-07-09_17h42.31.373,terkepesz_online,2020.1.3,Win32,60,,,,,,,,,,,,,,,,,,,,,,,,,,,,,,,,,,,,,,,,,,,,,,,,,,,,,,,,,,,,,,,,,,,,,,,,,,,,,,,,,,,,,,,,,,,,,,,,,,,,,,,,,,,,,,,,,,,,,,,,,,,,,,,,,,,,,,,,,,,
,,j,1,12.569745,,0,1,1,1,1,"Megbizonyosodott róla, hogy biztosítottak a vizsgálat elvégzéséhez szükséges feltételek? Válaszát jelölje a megadott billentyűk egyikével. ","F: Nem, nincs lehetőségem nyugodt körülmények között elvégezni a feladatot.    J: Igen, körülményeim nyugodtak, az internet kapcsolat stabil, a feladatokra tudok szánni 60 percet.",j,Köszönjük!,"Bizonyosodjon meg róla, hogy elég időt tud a vizsgálatra szánni. ","Kérjük, figyelmesen olvassa végig az alábbi instrukciókat!

A vizsgálathoz használjon asztali számítógépet vagy laptopot. A vizsgálat nem végezhető el mobil eszközön, például okostelefonon vagy táblagépen. A feladatok elvégzéséhez szüksége lesz működő billentyűzetre és stabil internet kapcsolatra. Az optimális eredmény elérése érdekében Google Chrome, Firefox vagy Safari böngésző használata javasolt. Kérjük, használja a teljes képernyő módot.
A kísérlet teljes körű, zavartalan figyelmet igényel. A vizsgálat két feladatból áll, és elvégzése 50-60 percet vesz igénybe. Bizonyosodjon meg róla, hogy elég időt tud szánni a vizsgálatra. Ügyeljen arra, hogy telefont, vagy más eszközöket közben ne használjon, és kerülje a másokkal való interakciót.

A vizsgálat két feladatból áll, melyek során absztrakt képeket kell kiválogatnia a megadott szempontok szerint. A feladatok alatt és a feladatok között is lesz lehetősége rövid pihenőt tartani. ",6M9zLYMB,igen,igen,2020-07-09_17h42.31.373,terkepesz_online,2020.1.3,Win32,60,,,,,,,,,,,,,,,,,,,,,,,,,,,,,,,,,,,,,,,,,,,,,,,,,,,,,,,,,,,,,,,,,,,,,,,,,,,,,,,,,,,,,,,,,,,,,,,,,,,,,,,,,,,,,,,,,,,,,,,,,,,,,,,,,,,,,,,,,,,
,,f,1,3.433025,,,,,,,"Mely billentyű jelzi azokat a képeket, amelyek nem maradhatnak a bemutatott helyen?",D billentyű    F billentyű   J billentyű    K billentyű,f,A helyes válasz: F billentyű,A helyes válasz: F billentyű,"Az első feladat nagyjából 25 percet vesz igénybe, közben két rövid szünettel. Ügyeljen, hogy ezek a szünetek ne legyenek 2 percnél hosszabbak. 

A 'J' billentyűvel jelölje azokat a képeket, amelyek maradhatnak a galériában, a bemutatott helyen.

Az 'F' billentyűvel jelölje a képeket, amelyek nem maradnak kiállítva a bemutatott helyen. ",6M9zLYMB,igen,igen,2020-07-09_17h42.31.373,terkepesz_online,2020.1.3,Win32,60,right,14.88701,right,29.03132,right,29.309055,right,12.26834,0,0,0,1,1,,,,,,,,,,,,,,,,,,,,,,,,,,,,,,,,,,,,,,,,,,,,,,,,,,,,,,,,,,,,,,,,,,,,,,,,,,,,,,,,,,,,,,,,,,,,,,,,,,,,,,,,,,,,,,,,,,,,,,,,,,,,,,
,,j,1,21.329375,,,,,,,"Mely billentyű jelzi azokat a képeket, amelyek maradhatnak a galériában, a bemutatott helyen?",D billentyű    F billentyű   J billentyű    K billentyű,j,A helyes válasz: J billentyű.,A helyes válasz: J billentyű.,"Az első feladat nagyjából 25 percet vesz igénybe, közben két rövid szünettel. Ügyeljen, hogy ezek a szünetek ne legyenek 2 percnél hosszabbak. 

A 'J' billentyűvel jelölje azokat a képeket, amelyek maradhatnak a galériában, a bemutatott helyen.

Az 'F' billentyűvel jelölje a képeket, amelyek nem maradnak kiállítva a bemutatott helyen. ",6M9zLYMB,igen,igen,2020-07-09_17h42.31.373,terkepesz_online,2020.1.3,Win32,60,,,,,,,,,0,1,1,0,1,,,,,,,,,,,,,,,,,,,,,,,,,,,,,,,,,,,,,,,,,,,,,,,,,,,,,,,,,,,,,,,,,,,,,,,,,,,,,,,,,,,,,,,,,,,,,,,,,,,,,,,,,,,,,,,,,,,,,,,,,,,,,,
,,,,,,,,,,,,,,,,,6M9zLYMB,igen,igen,2020-07-09_17h42.31.373,terkepesz_online,2020.1.3,Win32,60,,,,,,,,,,,,,,,f,1.709925,0,0,0,0,1,EncodingPractice,OBJ,LURE,1,stimuli/fractals/166a.jpg,-75,225,1500,Encoding,,,,,,,,,,,,,,,,,,,,,,,,,,,,,,,,,,,,,,,,,,,,,,,,,,,,,,,,,,,,,,,,,,,,,,,,,,,,,,,,,,,,,,,,,,,,,,,,,,,,,,,,,,,,,
,,,,,,,,,,,,,,,,,6M9zLYMB,igen,igen,2020-07-09_17h42.31.373,terkepesz_online,2020.1.3,Win32,60,,,,,,,,,,,,,,,j,1.51016,0,1,1,1,1,EncodingPractice,OBJ,TARGET,1,stimuli/fractals/167a.jpg,225,225,500,Encoding,,,,,,,,,,,,,,,,,,,,,,,,,,,,,,,,,,,,,,,,,,,,,,,,,,,,,,,,,,,,,,,,,,,,,,,,,,,,,,,,,,,,,,,,,,,,,,,,,,,,,,,,,,,,,
,,,,,,,,,,,,,,,,,6M9zLYMB,igen,igen,2020-07-09_17h42.31.373,terkepesz_online,2020.1.3,Win32,60,,,,,,,,,,,,,,,,,0,2,2,2,1,EncodingPractice,OBJ,FOIL,1,stimuli/fractals/149a.jpg,225,-75,1000,Encoding,,,,,,,,,,,,,,,,,,,,,,,,,,,,,,,,,,,,,,,,,,,,,,,,,,,,,,,,,,,,,,,,,,,,,,,,,,,,,,,,,,,,,,,,,,,,,,,,,,,,,,,,,,,,,
,,,,,,,,,,,,,,,,,6M9zLYMB,igen,igen,2020-07-09_17h42.31.373,terkepesz_online,2020.1.3,Win32,60,,,,,,,,,,,,,,,j,1.410735,0,3,3,3,1,EncodingPractice,LOC,FOIL,1,stimuli/fractals/148b.jpg,225,-75,1000,Encoding,,,,,,,,,,,,,,,,,,,,,,,,,,,,,,,,,,,,,,,,,,,,,,,,,,,,,,,,,,,,,,,,,,,,,,,,,,,,,,,,,,,,,,,,,,,,,,,,,,,,,,,,,,,,,
,,,,,,,,,,,,,,,,,6M9zLYMB,igen,igen,2020-07-09_17h42.31.373,terkepesz_online,2020.1.3,Win32,60,,,,,,,,,,,,,,,j,1.927145,0,4,4,4,1,EncodingPractice,LOC,LURE,1,stimuli/fractals/159a.jpg,-375,225,5000,Encoding,,,,,,,,,,,,,,,,,,,,,,,,,,,,,,,,,,,,,,,,,,,,,,,,,,,,,,,,,,,,,,,,,,,,,,,,,,,,,,,,,,,,,,,,,,,,,,,,,,,,,,,,,,,,,
,,,,,,,,,,,,,,,,,6M9zLYMB,igen,igen,2020-07-09_17h42.31.373,terkepesz_online,2020.1.3,Win32,60,,,,,,,,,,,,,,,j,1.428275,0,5,5,5,1,EncodingPractice,OBJ,LURE,1,stimuli/fractals/177b.jpg,-375,225,800,Encoding,,,,,,,,,,,,,,,,,,,,,,,,,,,,,,,,,,,,,,,,,,,,,,,,,,,,,,,,,,,,,,,,,,,,,,,,,,,,,,,,,,,,,,,,,,,,,,,,,,,,,,,,,,,,,
,,,,,,,,,,,,,,,,,6M9zLYMB,igen,igen,2020-07-09_17h42.31.373,terkepesz_online,2020.1.3,Win32,60,,,,,,,,,,,,,,,f,1.477605,0,6,6,6,1,EncodingPractice,-,-,1,stimuli/fractals/181c.jpg,-75,-75,3000,Encoding,,,,,,,,,,,,,,,,,,,,,,,,,,,,,,,,,,,,,,,,,,,,,,,,,,,,,,,,,,,,,,,,,,,,,,,,,,,,,,,,,,,,,,,,,,,,,,,,,,,,,,,,,,,,,
,,,,,,,,,,,,,,,,,6M9zLYMB,igen,igen,2020-07-09_17h42.31.373,terkepesz_online,2020.1.3,Win32,60,,,,,,,,,,,,,,,j,1.78548,0,7,7,7,1,EncodingPractice,-,-,1,stimuli/fractals/163a.jpg,-225,-225,800,Encoding,,,,,,,,,,,,,,,,,,,,,,,,,,,,,,,,,,,,,,,,,,,,,,,,,,,,,,,,,,,,,,,,,,,,,,,,,,,,,,,,,,,,,,,,,,,,,,,,,,,,,,,,,,,,,
,,,,,,,,,,,,,,,,,6M9zLYMB,igen,igen,2020-07-09_17h42.31.373,terkepesz_online,2020.1.3,Win32,60,,,,,,,,,,,,,,,j,1.58266,0,8,8,8,1,EncodingPractice,LOC,TARGET,1,stimuli/fractals/166a.jpg,-75,225,1500,Encoding,,,,,,,,,,,,,,,,,,,,,,,,,,,,,,,,,,,,,,,,,,,,,,,,,,,,,,,,,,,,,,,,,,,,,,,,,,,,,,,,,,,,,,,,,,,,,,,,,,,,,,,,,,,,,
,,,,,,,,,,,,,,,,,6M9zLYMB,igen,igen,2020-07-09_17h42.31.373,terkepesz_online,2020.1.3,Win32,60,,,,,,,,,,,,,,,f,1.37691,,,,,,,,OLP,1,stimuli/fractals/53c.jpg,375,225,2000,,right,5.820685,0,0,0,0,1,1,1,3,stimuli/fractals/53c.jpg,stimuli/fractals/53b.jpg,stimuli/fractals/53a.jpg,375,225,375,75,225,225,-225,-225,,,,,,,,,,,,,,,,,,,,,,,,,,,,,,,,,,,,,,,,,,,,,,,,,,,,,,,,,,,,,,,,,,,,,,,,,,,,,,,,,,,,,,,,
,,,,,,,,,,,,,,,,,6M9zLYMB,igen,igen,2020-07-09_17h42.31.373,terkepesz_online,2020.1.3,Win32,60,,,,,,,,,,,,,,,f,0.789325,,,,,,,,OLP,1,stimuli/fractals/93a.jpg,375,-75,6000,,,,0,1,1,1,1,2,1,3,stimuli/fractals/93a.jpg,stimuli/fractals/93c.jpg,stimuli/fractals/93b.jpg,375,-75,375,75,375,-225,-225,75,,,,,,,,,,,,,,,,,,,,,,,,,,,,,,,,,,,,,,,,,,,,,,,,,,,,,,,,,,,,,,,,,,,,,,,,,,,,,,,,,,,,,,,,
,,,,,,,,,,,,,,,,,6M9zLYMB,igen,igen,2020-07-09_17h42.31.373,terkepesz_online,2020.1.3,Win32,60,,,,,,,,,,,,,,,j,1.45482,,,,,,,,LLP,1,stimuli/fractals/124b.jpg,75,-75,2000,,,,0,2,2,2,1,3,1,5,stimuli/fractals/124b.jpg,stimuli/fractals/124a.jpg,stimuli/fractals/124c.jpg,75,-75,225,-75,-75,-75,-375,225,,,,,,,,,,,,,,,,,,,,,,,,,,,,,,,,,,,,,,,,,,,,,,,,,,,,,,,,,,,,,,,,,,,,,,,,,,,,,,,,,,,,,,,,
,,,,,,,,,,,,,,,,,6M9zLYMB,igen,igen,2020-07-09_17h42.31.373,terkepesz_online,2020.1.3,Win32,60,,,,,,,,,,,,,,,j,1.47322,,,,,,,,ERP,1,stimuli/fractals/111c.jpg,-75,225,1000,,,,0,3,3,3,1,4,1,2,stimuli/fractals/111c.jpg,stimuli/fractals/111b.jpg,stimuli/fractals/111a.jpg,-75,225,-75,75,-225,225,375,-225,,,,,,,,,,,,,,,,,,,,,,,,,,,,,,,,,,,,,,,,,,,,,,,,,,,,,,,,,,,,,,,,,,,,,,,,,,,,,,,,,,,,,,,,
,,,,,,,,,,,,,,,,,6M9zLYMB,igen,igen,2020-07-09_17h42.31.373,terkepesz_online,2020.1.3,Win32,60,,,,,,,,,,,,,,,j,1.19469,,,,,,,,OLP,2,stimuli/fractals/53b.jpg,375,225,5000,,,,0,4,4,4,1,5,1,0,stimuli/fractals/53c.jpg,stimuli/fractals/53b.jpg,stimuli/fractals/53a.jpg,375,225,375,75,225,225,-225,-225,,,,,,,,,,,,,,,,,,,,,,,,,,,,,,,,,,,,,,,,,,,,,,,,,,,,,,,,,,,,,,,,,,,,,,,,,,,,,,,,,,,,,,,,
,,,,,,,,,,,,,,,,,6M9zLYMB,igen,igen,2020-07-09_17h42.31.373,terkepesz_online,2020.1.3,Win32,60,,,,,,,,,,,,,,,f,0.966935,,,,,,,,OLP,2,stimuli/fractals/93c.jpg,375,-75,3000,,,,0,5,5,5,1,6,1,0,stimuli/fractals/93a.jpg,stimuli/fractals/93c.jpg,stimuli/fractals/93b.jpg,375,-75,375,75,375,-225,-225,75,,,,,,,,,,,,,,,,,,,,,,,,,,,,,,,,,,,,,,,,,,,,,,,,,,,,,,,,,,,,,,,,,,,,,,,,,,,,,,,,,,,,,,,,
,,,,,,,,,,,,,,,,,6M9zLYMB,igen,igen,2020-07-09_17h42.31.373,terkepesz_online,2020.1.3,Win32,60,,,,,,,,,,,,,,,j,0.922055,,,,,,,,ERP,2,stimuli/fractals/111c.jpg,-75,225,6000,,,,0,6,6,6,1,7,1,0,stimuli/fractals/111c.jpg,stimuli/fractals/111b.jpg,stimuli/fractals/111a.jpg,-75,225,-75,75,-225,225,375,-225,,,,,,,,,,,,,,,,,,,,,,,,,,,,,,,,,,,,,,,,,,,,,,,,,,,,,,,,,,,,,,,,,,,,,,,,,,,,,,,,,,,,,,,,
,,,,,,,,,,,,,,,,,6M9zLYMB,igen,igen,2020-07-09_17h42.31.373,terkepesz_online,2020.1.3,Win32,60,,,,,,,,,,,,,,,f,1.120245,,,,,,,,ERP,1,stimuli/fractals/61b.jpg,-75,-75,2000,,,,0,7,7,7,1,8,1,5,stimuli/fractals/61b.jpg,stimuli/fractals/61a.jpg,stimuli/fractals/61c.jpg,-75,-75,75,-75,-75,75,375,225,,,,,,,,,,,,,,,,,,,,,,,,,,,,,,,,,,,,,,,,,,,,,,,,,,,,,,,,,,,,,,,,,,,,,,,,,,,,,,,,,,,,,,,,
,,,,,,,,,,,,,,,,,6M9zLYMB,igen,igen,2020-07-09_17h42.31.373,terkepesz_online,2020.1.3,Win32,60,,,,,,,,,,,,,,,j,1.27033,,,,,,,,LLP,2,stimuli/fractals/124b.jpg,225,-75,2000,,,,0,8,8,8,1,9,1,0,stimuli/fractals/124b.jpg,stimuli/fractals/124a.jpg,stimuli/fractals/124c.jpg,75,-75,225,-75,-75,-75,-375,225,,,,,,,,,,,,,,,,,,,,,,,,,,,,,,,,,,,,,,,,,,,,,,,,,,,,,,,,,,,,,,,,,,,,,,,,,,,,,,,,,,,,,,,,
,,,,,,,,,,,,,,,,,6M9zLYMB,igen,igen,2020-07-09_17h42.31.373,terkepesz_online,2020.1.3,Win32,60,,,,,,,,,,,,,,,f,0.97459,,,,,,,,LLP,1,stimuli/fractals/12a.jpg,-75,225,3000,,,,0,9,9,9,1,10,1,4,stimuli/fractals/12a.jpg,stimuli/fractals/12b.jpg,stimuli/fractals/12c.jpg,-75,225,75,225,-225,225,375,-75,,,,,,,,,,,,,,,,,,,,,,,,,,,,,,,,,,,,,,,,,,,,,,,,,,,,,,,,,,,,,,,,,,,,,,,,,,,,,,,,,,,,,,,,
,,,,,,,,,,,,,,,,,6M9zLYMB,igen,igen,2020-07-09_17h42.31.373,terkepesz_online,2020.1.3,Win32,60,,,,,,,,,,,,,,,j,1.377585,,,,,,,,ERP,1,stimuli/fractals/7a.jpg,-225,75,2000,,,,0,10,10,10,1,11,1,1,stimuli/fractals/7a.jpg,stimuli/fractals/7c.jpg,stimuli/fractals/7b.jpg,-225,75,-375,75,-225,-75,375,-75,,,,,,,,,,,,,,,,,,,,,,,,,,,,,,,,,,,,,,,,,,,,,,,,,,,,,,,,,,,,,,,,,,,,,,,,,,,,,,,,,,,,,,,,
,,,,,,,,,,,,,,,,,6M9zLYMB,igen,igen,2020-07-09_17h42.31.373,terkepesz_online,2020.1.3,Win32,60,,,,,,,,,,,,,,,j,1.21648,,,,,,,,OLP,1,stimuli/fractals/109b.jpg,-75,-225,2000,,,,0,11,11,11,1,12,1,4,stimuli/fractals/109b.jpg,stimuli/fractals/109a.jpg,stimuli/fractals/109c.jpg,-75,-225,-75,-75,-225,-225,375,225,,,,,,,,,,,,,,,,,,,,,,,,,,,,,,,,,,,,,,,,,,,,,,,,,,,,,,,,,,,,,,,,,,,,,,,,,,,,,,,,,,,,,,,,
,,,,,,,,,,,,,,,,,6M9zLYMB,igen,igen,2020-07-09_17h42.31.373,terkepesz_online,2020.1.3,Win32,60,,,,,,,,,,,,,,,,,,,,,,,,ERP,2,stimuli/fractals/7a.jpg,-225,75,2000,,,,0,12,12,12,1,13,1,0,stimuli/fractals/7a.jpg,stimuli/fractals/7c.jpg,stimuli/fractals/7b.jpg,-225,75,-375,75,-225,-75,375,-75,,,,,,,,,,,,,,,,,,,,,,,,,,,,,,,,,,,,,,,,,,,,,,,,,,,,,,,,,,,,,,,,,,,,,,,,,,,,,,,,,,,,,,,,
,,,,,,,,,,,,,,,,,6M9zLYMB,igen,igen,2020-07-09_17h42.31.373,terkepesz_online,2020.1.3,Win32,60,,,,,,,,,,,,,,f,f,1.11285,,,,,,,,ERP,2,stimuli/fractals/61b.jpg,-75,-75,500,,,,0,13,13,13,1,14,1,0,stimuli/fractals/61b.jpg,stimuli/fractals/61a.jpg,stimuli/fractals/61c.jpg,-75,-75,75,-75,-75,75,375,225,0.06462,,,,,,,,,,,,,,,,,,,,,,,,,,,,,,,,,,,,,,,,,,,,,,,,,,,,,,,,,,,,,,,,,,,,,,,,,,,,,,,,,,,,,,,
,,,,,,,,,,,,,,,,,6M9zLYMB,igen,igen,2020-07-09_17h42.31.373,terkepesz_online,2020.1.3,Win32,60,,,,,,,,,,,,,,,j,0.937065,,,,,,,,LLP,2,stimuli/fractals/12a.jpg,75,225,500,,,,0,14,14,14,1,15,1,0,stimuli/fractals/12a.jpg,stimuli/fractals/12b.jpg,stimuli/fractals/12c.jpg,-75,225,75,225,-225,225,375,-75,,,,,,,,,,,,,,,,,,,,,,,,,,,,,,,,,,,,,,,,,,,,,,,,,,,,,,,,,,,,,,,,,,,,,,,,,,,,,,,,,,,,,,,,
,,,,,,,,,,,,,,,,,6M9zLYMB,igen,igen,2020-07-09_17h42.31.373,terkepesz_online,2020.1.3,Win32,60,,,,,,,,,,,,,,,f,0.96628,,,,,,,,LLP,1,stimuli/fractals/89c.jpg,75,225,1000,,,,0,15,15,15,1,16,1,2,stimuli/fractals/89c.jpg,stimuli/fractals/89a.jpg,stimuli/fractals/89b.jpg,75,225,-75,225,225,225,-375,-225,,,,,,,,,,,,,,,,,,,,,,,,,,,,,,,,,,,,,,,,,,,,,,,,,,,,,,,,,,,,,,,,,,,,,,,,,,,,,,,,,,,,,,,,
,,,,,,,,,,,,,,,,,6M9zLYMB,igen,igen,2020-07-09_17h42.31.373,terkepesz_online,2020.1.3,Win32,60,,,,,,,,,,,,,,,j,0.97393,,,,,,,,OLP,2,stimuli/fractals/109a.jpg,-75,-225,3000,,,,0,16,16,16,1,17,1,0,stimuli/fractals/109b.jpg,stimuli/fractals/109a.jpg,stimuli/fractals/109c.jpg,-75,-225,-75,-75,-225,-225,375,225,,,,,,,,,,,,,,,,,,,,,,,,,,,,,,,,,,,,,,,,,,,,,,,,,,,,,,,,,,,,,,,,,,,,,,,,,,,,,,,,,,,,,,,,
,,,,,,,,,,,,,,,,,6M9zLYMB,igen,igen,2020-07-09_17h42.31.373,terkepesz_online,2020.1.3,Win32,60,,,,,,,,,,,,,,,f,1.06231,,,,,,,,OLP,1,stimuli/fractals/142b.jpg,75,-75,4000,,,,0,17,17,17,1,18,1,1,stimuli/fractals/142b.jpg,stimuli/fractals/142a.jpg,stimuli/fractals/142c.jpg,75,-75,-75,-75,75,75,-375,225,,,,,,,,,,,,,,,,,,,,,,,,,,,,,,,,,,,,,,,,,,,,,,,,,,,,,,,,,,,,,,,,,,,,,,,,,,,,,,,,,,,,,,,,
,,,,,,,,,,,,,,,,,6M9zLYMB,igen,igen,2020-07-09_17h42.31.373,terkepesz_online,2020.1.3,Win32,60,,,,,,,,,,,,,,,j,1.240815,,,,,,,,LLP,2,stimuli/fractals/89c.jpg,-75,225,1000,,,,0,18,18,18,1,19,1,0,stimuli/fractals/89c.jpg,stimuli/fractals/89a.jpg,stimuli/fractals/89b.jpg,75,225,-75,225,225,225,-375,-225,,,,,,,,,,,,,,,,,,,,,,,,,,,,,,,,,,,,,,,,,,,,,,,,,,,,,,,,,,,,,,,,,,,,,,,,,,,,,,,,,,,,,,,,
,,,,,,,,,,,,,,,,,6M9zLYMB,igen,igen,2020-07-09_17h42.31.373,terkepesz_online,2020.1.3,Win32,60,,,,,,,,,,,,,,,j,1.067705,,,,,,,,OLP,2,stimuli/fractals/142a.jpg,75,-75,2000,,,,0,19,19,19,1,20,1,0,stimuli/fractals/142b.jpg,stimuli/fractals/142a.jpg,stimuli/fractals/142c.jpg,75,-75,-75,-75,75,75,-375,225,,,,,,,,,,,,,,,,,,,,,,,,,,,,,,,,,,,,,,,,,,,,,,,,,,,,,,,,,,,,,,,,,,,,,,,,,,,,,,,,,,,,,,,,
,,,,,,,,,,,,,,,,,6M9zLYMB,igen,igen,2020-07-09_17h42.31.373,terkepesz_online,2020.1.3,Win32,60,,,,,,,,,,,,,,,f,1.01853,,,,,,,,BL,0,stimuli/fractals/35a.jpg,225,-75,5000,,,,0,20,20,20,1,21,1,0,stimuli/fractals/35a.jpg,stimuli/fractals/35c.jpg,stimuli/fractals/35b.jpg,225,-75,225,75,75,-75,-375,-225,,,,,,,,,,,,,,,,,,,,,,,,,,,,,,,,,,,,,,,,,,,,,,,,,,,,,,,,,,,,,,,,,,,,,,,,,,,,,,,,,,,,,,,,
,,,,,,,,,,,,,,,,,6M9zLYMB,igen,igen,2020-07-09_17h42.31.373,terkepesz_online,2020.1.3,Win32,60,,,,,,,,,,,,,,,j,1.053175,,,,,,,,ERP,1,stimuli/fractals/99c.jpg,375,75,1000,,,,0,21,21,21,1,22,1,3,stimuli/fractals/99c.jpg,stimuli/fractals/99a.jpg,stimuli/fractals/99b.jpg,375,75,375,225,225,75,-225,-225,,,,,,,,,,,,,,,,,,,,,,,,,,,,,,,,,,,,,,,,,,,,,,,,,,,,,,,,,,,,,,,,,,,,,,,,,,,,,,,,,,,,,,,,
,,,,,,,,,,,,,,,,,6M9zLYMB,igen,igen,2020-07-09_17h42.31.373,terkepesz_online,2020.1.3,Win32,60,,,,,,,,,,,,,,,j,1.43539,,,,,,,,LLP,1,stimuli/fractals/45b.jpg,75,75,2000,,,,0,22,22,22,1,23,1,5,stimuli/fractals/45b.jpg,stimuli/fractals/45c.jpg,stimuli/fractals/45a.jpg,75,75,-75,75,75,-75,-375,-225,,,,,,,,,,,,,,,,,,,,,,,,,,,,,,,,,,,,,,,,,,,,,,,,,,,,,,,,,,,,,,,,,,,,,,,,,,,,,,,,,,,,,,,,
,,,,,,,,,,,,,,,,,6M9zLYMB,igen,igen,2020-07-09_17h42.31.373,terkepesz_online,2020.1.3,Win32,60,,,,,,,,,,,,,,,f,0.843025,,,,,,,,ERP,1,stimuli/fractals/21a.jpg,375,225,1000,,,,0,23,23,23,1,24,1,2,stimuli/fractals/21a.jpg,stimuli/fractals/21b.jpg,stimuli/fractals/21c.jpg,375,225,375,75,225,225,-375,-225,,,,,,,,,,,,,,,,,,,,,,,,,,,,,,,,,,,,,,,,,,,,,,,,,,,,,,,,,,,,,,,,,,,,,,,,,,,,,,,,,,,,,,,,
,,,,,,,,,,,,,,,,,6M9zLYMB,igen,igen,2020-07-09_17h42.31.373,terkepesz_online,2020.1.3,Win32,60,,,,,,,,,,,,,,,f,1.217585,,,,,,,,ERP,1,stimuli/fractals/14c.jpg,-75,75,2000,,,,0,24,24,24,1,25,1,5,stimuli/fractals/14c.jpg,stimuli/fractals/14a.jpg,stimuli/fractals/14b.jpg,-75,75,-75,225,75,75,375,-225,,,,,,,,,,,,,,,,,,,,,,,,,,,,,,,,,,,,,,,,,,,,,,,,,,,,,,,,,,,,,,,,,,,,,,,,,,,,,,,,,,,,,,,,
,,,,,,,,,,,,,,,,,6M9zLYMB,igen,igen,2020-07-09_17h42.31.373,terkepesz_online,2020.1.3,Win32,60,,,,,,,,,,,,,,,j,0.876165,,,,,,,,ERP,2,stimuli/fractals/99c.jpg,375,75,1000,,,,0,25,25,25,1,26,1,0,stimuli/fractals/99c.jpg,stimuli/fractals/99a.jpg,stimuli/fractals/99b.jpg,375,75,375,225,225,75,-225,-225,,,,,,,,,,,,,,,,,,,,,,,,,,,,,,,,,,,,,,,,,,,,,,,,,,,,,,,,,,,,,,,,,,,,,,,,,,,,,,,,,,,,,,,,
,,,,,,,,,,,,,,,,,6M9zLYMB,igen,igen,2020-07-09_17h42.31.373,terkepesz_online,2020.1.3,Win32,60,,,,,,,,,,,,,,,f,0.897675,,,,,,,,ERP,2,stimuli/fractals/21a.jpg,375,225,5000,,,,0,26,26,26,1,27,1,0,stimuli/fractals/21a.jpg,stimuli/fractals/21b.jpg,stimuli/fractals/21c.jpg,375,225,375,75,225,225,-375,-225,,,,,,,,,,,,,,,,,,,,,,,,,,,,,,,,,,,,,,,,,,,,,,,,,,,,,,,,,,,,,,,,,,,,,,,,,,,,,,,,,,,,,,,,
,,,,,,,,,,,,,,,,,6M9zLYMB,igen,igen,2020-07-09_17h42.31.373,terkepesz_online,2020.1.3,Win32,60,,,,,,,,,,,,,,,j,1.16072,,,,,,,,OLP,1,stimuli/fractals/51a.jpg,225,225,2000,,,,0,27,27,27,1,28,1,3,stimuli/fractals/51a.jpg,stimuli/fractals/51c.jpg,stimuli/fractals/51b.jpg,225,225,75,225,375,225,-375,-225,,,,,,,,,,,,,,,,,,,,,,,,,,,,,,,,,,,,,,,,,,,,,,,,,,,,,,,,,,,,,,,,,,,,,,,,,,,,,,,,,,,,,,,,
,,,,,,,,,,,,,,,,,6M9zLYMB,igen,igen,2020-07-09_17h42.31.373,terkepesz_online,2020.1.3,Win32,60,,,,,,,,,,,,,,,j,1.132025,,,,,,,,LLP,2,stimuli/fractals/45b.jpg,-75,75,4000,,,,0,28,28,28,1,29,1,0,stimuli/fractals/45b.jpg,stimuli/fractals/45c.jpg,stimuli/fractals/45a.jpg,75,75,-75,75,75,-75,-375,-225,,,,,,,,,,,,,,,,,,,,,,,,,,,,,,,,,,,,,,,,,,,,,,,,,,,,,,,,,,,,,,,,,,,,,,,,,,,,,,,,,,,,,,,,
,,,,,,,,,,,,,,,,,6M9zLYMB,igen,igen,2020-07-09_17h42.31.373,terkepesz_online,2020.1.3,Win32,60,,,,,,,,,,,,,,,f,0.980165,,,,,,,,OLP,1,stimuli/fractals/114a.jpg,-75,75,1000,,,,0,29,29,29,1,30,1,2,stimuli/fractals/114a.jpg,stimuli/fractals/114b.jpg,stimuli/fractals/114c.jpg,-75,75,-225,75,75,75,375,-225,,,,,,,,,,,,,,,,,,,,,,,,,,,,,,,,,,,,,,,,,,,,,,,,,,,,,,,,,,,,,,,,,,,,,,,,,,,,,,,,,,,,,,,,
,,,,,,,,,,,,,,,,,6M9zLYMB,igen,igen,2020-07-09_17h42.31.373,terkepesz_online,2020.1.3,Win32,60,,,,,,,,,,,,,,,f,0.869075,,,,,,,,ERP,2,stimuli/fractals/14c.jpg,-75,75,3000,,,,0,30,30,30,1,31,1,0,stimuli/fractals/14c.jpg,stimuli/fractals/14a.jpg,stimuli/fractals/14b.jpg,-75,75,-75,225,75,75,375,-225,,,,,,,,,,,,,,,,,,,,,,,,,,,,,,,,,,,,,,,,,,,,,,,,,,,,,,,,,,,,,,,,,,,,,,,,,,,,,,,,,,,,,,,,
,,,,,,,,,,,,,,,,,6M9zLYMB,igen,igen,2020-07-09_17h42.31.373,terkepesz_online,2020.1.3,Win32,60,,,,,,,,,,,,,,,j,2.3189,,,,,,,,OLP,2,stimuli/fractals/51c.jpg,225,225,4000,,,,0,31,31,31,1,32,1,0,stimuli/fractals/51a.jpg,stimuli/fractals/51c.jpg,stimuli/fractals/51b.jpg,225,225,75,225,375,225,-375,-225,,,,,,,,,,,,,,,,,,,,,,,,,,,,,,,,,,,,,,,,,,,,,,,,,,,,,,,,,,,,,,,,,,,,,,,,,,,,,,,,,,,,,,,,
,,,,,,,,,,,,,,,,,6M9zLYMB,igen,igen,2020-07-09_17h42.31.373,terkepesz_online,2020.1.3,Win32,60,,,,,,,,,,,,,,,f,1.215455,,,,,,,,OLP,2,stimuli/fractals/114b.jpg,-75,75,1000,,,,0,32,32,32,1,33,1,0,stimuli/fractals/114a.jpg,stimuli/fractals/114b.jpg,stimuli/fractals/114c.jpg,-75,75,-225,75,75,75,375,-225,,,,,,,,,,,,,,,,,,,,,,,,,,,,,,,,,,,,,,,,,,,,,,,,,,,,,,,,,,,,,,,,,,,,,,,,,,,,,,,,,,,,,,,,
,,,,,,,,,,,,,,,,,6M9zLYMB,igen,igen,2020-07-09_17h42.31.373,terkepesz_online,2020.1.3,Win32,60,,,,,,,,,,,,,,,f,1.038295,,,,,,,,ERP,1,stimuli/fractals/23a.jpg,-375,-75,3000,,,,0,33,33,33,1,34,1,4,stimuli/fractals/23a.jpg,stimuli/fractals/23c.jpg,stimuli/fractals/23b.jpg,-375,-75,-375,-225,-225,-75,375,225,,,,,,,,,,,,,,,,,,,,,,,,,,,,,,,,,,,,,,,,,,,,,,,,,,,,,,,,,,,,,,,,,,,,,,,,,,,,,,,,,,,,,,,,
,,,,,,,,,,,,,,,,,6M9zLYMB,igen,igen,2020-07-09_17h42.31.373,terkepesz_online,2020.1.3,Win32,60,,,,,,,,,,,,,,,j,0.81453,,,,,,,,OLP,1,stimuli/fractals/25c.jpg,-375,225,7000,,,,0,34,34,34,1,35,1,1,stimuli/fractals/25c.jpg,stimuli/fractals/25b.jpg,stimuli/fractals/25a.jpg,-375,225,-225,225,-375,75,375,-75,,,,,,,,,,,,,,,,,,,,,,,,,,,,,,,,,,,,,,,,,,,,,,,,,,,,,,,,,,,,,,,,,,,,,,,,,,,,,,,,,,,,,,,,
,,,,,,,,,,,,,,,,,6M9zLYMB,igen,igen,2020-07-09_17h42.31.373,terkepesz_online,2020.1.3,Win32,60,,,,,,,,,,,,,,,f,0.907555,,,,,,,,LLP,1,stimuli/fractals/84c.jpg,375,-75,1000,,,,0,35,35,35,1,36,1,4,stimuli/fractals/84c.jpg,stimuli/fractals/84a.jpg,stimuli/fractals/84b.jpg,375,-75,225,-75,375,-225,-225,75,,,,,,,,,,,,,,,,,,,,,,,,,,,,,,,,,,,,,,,,,,,,,,,,,,,,,,,,,,,,,,,,,,,,,,,,,,,,,,,,,,,,,,,,
,,,,,,,,,,,,,,,,,6M9zLYMB,igen,igen,2020-07-09_17h42.31.373,terkepesz_online,2020.1.3,Win32,60,,,,,,,,,,,,,,,f,1.221355,,,,,,,,OLP,2,stimuli/fractals/25b.jpg,-375,225,1000,,,,0,36,36,36,1,37,1,0,stimuli/fractals/25c.jpg,stimuli/fractals/25b.jpg,stimuli/fractals/25a.jpg,-375,225,-225,225,-375,75,375,-75,,,,,,,,,,,,,,,,,,,,,,,,,,,,,,,,,,,,,,,,,,,,,,,,,,,,,,,,,,,,,,,,,,,,,,,,,,,,,,,,,,,,,,,,
,,,,,,,,,,,,,,,,,6M9zLYMB,igen,igen,2020-07-09_17h42.31.373,terkepesz_online,2020.1.3,Win32,60,,,,,,,,,,,,,,,j,0.937425,,,,,,,,LLP,1,stimuli/fractals/49a.jpg,-375,75,3000,,,,0,37,37,37,1,38,1,1,stimuli/fractals/49a.jpg,stimuli/fractals/49c.jpg,stimuli/fractals/49b.jpg,-375,75,-375,-75,-375,225,375,75,,,,,,,,,,,,,,,,,,,,,,,,,,,,,,,,,,,,,,,,,,,,,,,,,,,,,,,,,,,,,,,,,,,,,,,,,,,,,,,,,,,,,,,,
,,,,,,,,,,,,,,,,,6M9zLYMB,igen,igen,2020-07-09_17h42.31.373,terkepesz_online,2020.1.3,Win32,60,,,,,,,,,,,,,,,f,1.4076,,,,,,,,ERP,2,stimuli/fractals/23a.jpg,-375,-75,2000,,,,0,38,38,38,1,39,1,0,stimuli/fractals/23a.jpg,stimuli/fractals/23c.jpg,stimuli/fractals/23b.jpg,-375,-75,-375,-225,-225,-75,375,225,,,,,,,,,,,,,,,,,,,,,,,,,,,,,,,,,,,,,,,,,,,,,,,,,,,,,,,,,,,,,,,,,,,,,,,,,,,,,,,,,,,,,,,,
,,,,,,,,,,,,,,,,,6M9zLYMB,igen,igen,2020-07-09_17h42.31.373,terkepesz_online,2020.1.3,Win32,60,,,,,,,,,,,,,,,j,1.536285,,,,,,,,LLP,2,stimuli/fractals/49a.jpg,-375,-75,1000,,,,0,39,39,39,1,40,1,0,stimuli/fractals/49a.jpg,stimuli/fractals/49c.jpg,stimuli/fractals/49b.jpg,-375,75,-375,-75,-375,225,375,75,,,,,,,,,,,,,,,,,,,,,,,,,,,,,,,,,,,,,,,,,,,,,,,,,,,,,,,,,,,,,,,,,,,,,,,,,,,,,,,,,,,,,,,,
,,,,,,,,,,,,,,,,,6M9zLYMB,igen,igen,2020-07-09_17h42.31.373,terkepesz_online,2020.1.3,Win32,60,,,,,,,,,,,,,,,f,1.67173,,,,,,,,LLP,2,stimuli/fractals/84c.jpg,225,-75,3000,,,,0,40,40,40,1,41,1,0,stimuli/fractals/84c.jpg,stimuli/fractals/84a.jpg,stimuli/fractals/84b.jpg,375,-75,225,-75,375,-225,-225,75,,,,,,,,,,,,,,,,,,,,,,,,,,,,,,,,,,,,,,,,,,,,,,,,,,,,,,,,,,,,,,,,,,,,,,,,,,,,,,,,,,,,,,,,
,,,,,,,,,,,,,,,,,6M9zLYMB,igen,igen,2020-07-09_17h42.31.373,terkepesz_online,2020.1.3,Win32,60,,,,,,,,,,,,,,,j,1.55167,,,,,,,,BL,0,stimuli/fractals/35a.jpg,225,-75,3000,,,,0,41,41,41,1,42,1,0,stimuli/fractals/35a.jpg,stimuli/fractals/35c.jpg,stimuli/fractals/35b.jpg,225,-75,225,75,75,-75,-375,-225,,,,,,,,,,,,,,,,,,,,,,,,,,,,,,,,,,,,,,,,,,,,,,,,,,,,,,,,,,,,,,,,,,,,,,,,,,,,,,,,,,,,,,,,
,,,,,,,,,,,,,,,,,6M9zLYMB,igen,igen,2020-07-09_17h42.31.373,terkepesz_online,2020.1.3,Win32,60,,,,,,,,,,,,,,,j,1.472715,,,,,,,,OLP,1,stimuli/fractals/108a.jpg,75,-75,2000,,,,0,42,42,42,1,43,1,2,stimuli/fractals/108a.jpg,stimuli/fractals/108c.jpg,stimuli/fractals/108b.jpg,75,-75,75,75,225,-75,-375,225,,,,,,,,,,,,,,,,,,,,,,,,,,,,,,,,,,,,,,,,,,,,,,,,,,,,,,,,,,,,,,,,,,,,,,,,,,,,,,,,,,,,,,,,
,,,,,,,,,,,,,,,,,6M9zLYMB,igen,igen,2020-07-09_17h42.31.373,terkepesz_online,2020.1.3,Win32,60,,,,,,,,,,,,,,,j,1.032435,,,,,,,,OLP,1,stimuli/fractals/32a.jpg,-75,75,2000,,,,0,43,43,43,1,44,1,5,stimuli/fractals/32a.jpg,stimuli/fractals/32c.jpg,stimuli/fractals/32b.jpg,-75,75,75,75,-75,225,375,-225,,,,,,,,,,,,,,,,,,,,,,,,,,,,,,,,,,,,,,,,,,,,,,,,,,,,,,,,,,,,,,,,,,,,,,,,,,,,,,,,,,,,,,,,
,,,,,,,,,,,,,,,,,6M9zLYMB,igen,igen,2020-07-09_17h42.31.373,terkepesz_online,2020.1.3,Win32,60,,,,,,,,,,,,,,,f,1.23861,,,,,,,,ERP,1,stimuli/fractals/129a.jpg,-375,225,1000,,,,0,44,44,44,1,45,1,5,stimuli/fractals/129a.jpg,stimuli/fractals/129b.jpg,stimuli/fractals/129c.jpg,-375,225,-375,75,-225,225,375,-225,,,,,,,,,,,,,,,,,,,,,,,,,,,,,,,,,,,,,,,,,,,,,,,,,,,,,,,,,,,,,,,,,,,,,,,,,,,,,,,,,,,,,,,,
,,,,,,,,,,,,,,,,,6M9zLYMB,igen,igen,2020-07-09_17h42.31.373,terkepesz_online,2020.1.3,Win32,60,,,,,,,,,,,,,,,j,1.27667,,,,,,,,OLP,2,stimuli/fractals/108c.jpg,75,-75,4000,,,,0,45,45,45,1,46,1,0,stimuli/fractals/108a.jpg,stimuli/fractals/108c.jpg,stimuli/fractals/108b.jpg,75,-75,75,75,225,-75,-375,225,,,,,,,,,,,,,,,,,,,,,,,,,,,,,,,,,,,,,,,,,,,,,,,,,,,,,,,,,,,,,,,,,,,,,,,,,,,,,,,,,,,,,,,,
,,,,,,,,,,,,,,,,,6M9zLYMB,igen,igen,2020-07-09_17h42.31.373,terkepesz_online,2020.1.3,Win32,60,,,,,,,,,,,,,,,j,1.656455,,,,,,,,LLP,1,stimuli/fractals/18c.jpg,-375,-75,1000,,,,0,46,46,46,1,47,1,1,stimuli/fractals/18c.jpg,stimuli/fractals/18b.jpg,stimuli/fractals/18a.jpg,-375,-75,-375,-225,-225,-75,225,-225,,,,,,,,,,,,,,,,,,,,,,,,,,,,,,,,,,,,,,,,,,,,,,,,,,,,,,,,,,,,,,,,,,,,,,,,,,,,,,,,,,,,,,,,
,,,,,,,,,,,,,,,,,6M9zLYMB,igen,igen,2020-07-09_17h42.31.373,terkepesz_online,2020.1.3,Win32,60,,,,,,,,,,,,,,,f,1.316675,,,,,,,,ERP,1,stimuli/fractals/59c.jpg,225,-225,1000,,,,0,47,47,47,1,48,1,3,stimuli/fractals/59c.jpg,stimuli/fractals/59a.jpg,stimuli/fractals/59b.jpg,225,-225,75,-225,225,-75,-375,225,,,,,,,,,,,,,,,,,,,,,,,,,,,,,,,,,,,,,,,,,,,,,,,,,,,,,,,,,,,,,,,,,,,,,,,,,,,,,,,,,,,,,,,,
,,,,,,,,,,,,,,,,,6M9zLYMB,igen,igen,2020-07-09_17h42.31.373,terkepesz_online,2020.1.3,Win32,60,,,,,,,,,,,,,,,j,0.97424,,,,,,,,LLP,2,stimuli/fractals/18c.jpg,-375,-225,1000,,,,0,48,48,48,1,49,1,0,stimuli/fractals/18c.jpg,stimuli/fractals/18b.jpg,stimuli/fractals/18a.jpg,-375,-75,-375,-225,-225,-75,225,-225,,,,,,,,,,,,,,,,,,,,,,,,,,,,,,,,,,,,,,,,,,,,,,,,,,,,,,,,,,,,,,,,,,,,,,,,,,,,,,,,,,,,,,,,
,,,,,,,,,,,,,,,,,6M9zLYMB,igen,igen,2020-07-09_17h42.31.373,terkepesz_online,2020.1.3,Win32,60,,,,,,,,,,,,,,,j,0.920895,,,,,,,,OLP,2,stimuli/fractals/32c.jpg,-75,75,1000,,,,0,49,49,49,1,50,1,0,stimuli/fractals/32a.jpg,stimuli/fractals/32c.jpg,stimuli/fractals/32b.jpg,-75,75,75,75,-75,225,375,-225,,,,,,,,,,,,,,,,,,,,,,,,,,,,,,,,,,,,,,,,,,,,,,,,,,,,,,,,,,,,,,,,,,,,,,,,,,,,,,,,,,,,,,,,
,,,,,,,,,,,,,,,,,6M9zLYMB,igen,igen,2020-07-09_17h42.31.373,terkepesz_online,2020.1.3,Win32,60,,,,,,,,,,,,,,,f,1.211955,,,,,,,,ERP,2,stimuli/fractals/129a.jpg,-375,225,3000,,,,0,50,50,50,1,51,1,0,stimuli/fractals/129a.jpg,stimuli/fractals/129b.jpg,stimuli/fractals/129c.jpg,-375,225,-375,75,-225,225,375,-225,,,,,,,,,,,,,,,,,,,,,,,,,,,,,,,,,,,,,,,,,,,,,,,,,,,,,,,,,,,,,,,,,,,,,,,,,,,,,,,,,,,,,,,,
,,,,,,,,,,,,,,,,,6M9zLYMB,igen,igen,2020-07-09_17h42.31.373,terkepesz_online,2020.1.3,Win32,60,,,,,,,,,,,,,,,j,0.385755,,,,,,,,ERP,2,stimuli/fractals/59c.jpg,225,-225,3000,,,,0,51,51,51,1,52,1,0,stimuli/fractals/59c.jpg,stimuli/fractals/59a.jpg,stimuli/fractals/59b.jpg,225,-225,75,-225,225,-75,-375,225,,,,,,,,,,,,,,,,,,,,,,,,,,,,,,,,,,,,,,,,,,,,,,,,,,,,,,,,,,,,,,,,,,,,,,,,,,,,,,,,,,,,,,,,
,,,,,,,,,,,,,,,,,6M9zLYMB,igen,igen,2020-07-09_17h42.31.373,terkepesz_online,2020.1.3,Win32,60,,,,,,,,,,,,,,,f,2.013935,,,,,,,,OLP,1,stimuli/fractals/103a.jpg,-375,225,500,,,,0,52,52,52,1,53,1,1,stimuli/fractals/103a.jpg,stimuli/fractals/103c.jpg,stimuli/fractals/103b.jpg,-375,225,-375,75,-225,225,75,-225,,,,,,,,,,,,,,,,,,,,,,,,,,,,,,,,,,,,,,,,,,,,,,,,,,,,,,,,,,,,,,,,,,,,,,,,,,,,,,,,,,,,,,,,
,,,,,,,,,,,,,,,,,6M9zLYMB,igen,igen,2020-07-09_17h42.31.373,terkepesz_online,2020.1.3,Win32,60,,,,,,,,,,,,,,,j,1.125695,,,,,,,,OLP,1,stimuli/fractals/98a.jpg,375,75,1000,,,,0,53,53,53,1,54,1,4,stimuli/fractals/98a.jpg,stimuli/fractals/98b.jpg,stimuli/fractals/98c.jpg,375,75,375,225,225,75,-75,-225,,,,,,,,,,,,,,,,,,,,,,,,,,,,,,,,,,,,,,,,,,,,,,,,,,,,,,,,,,,,,,,,,,,,,,,,,,,,,,,,,,,,,,,,
,,,,,,,,,,,,,,,,,6M9zLYMB,igen,igen,2020-07-09_17h42.31.373,terkepesz_online,2020.1.3,Win32,60,,,,,,,,,,,,,,,j,0.999385,,,,,,,,OLP,2,stimuli/fractals/103c.jpg,-375,225,1000,,,,0,54,54,54,1,55,1,0,stimuli/fractals/103a.jpg,stimuli/fractals/103c.jpg,stimuli/fractals/103b.jpg,-375,225,-375,75,-225,225,75,-225,,,,,,,,,,,,,,,,,,,,,,,,,,,,,,,,,,,,,,,,,,,,,,,,,,,,,,,,,,,,,,,,,,,,,,,,,,,,,,,,,,,,,,,,
,,,,,,,,,,,,,,,,,6M9zLYMB,igen,igen,2020-07-09_17h42.31.373,terkepesz_online,2020.1.3,Win32,60,,,,,,,,,,,,,,,j,2.01967,,,,,,,,LLP,1,stimuli/fractals/122a.jpg,-225,-75,1000,,,,0,55,55,55,1,56,1,4,stimuli/fractals/122a.jpg,stimuli/fractals/122c.jpg,stimuli/fractals/122b.jpg,-225,-75,-225,75,-225,-225,375,225,,,,,,,,,,,,,,,,,,,,,,,,,,,,,,,,,,,,,,,,,,,,,,,,,,,,,,,,,,,,,,,,,,,,,,,,,,,,,,,,,,,,,,,,
,,,,,,,,,,,,,,,,,6M9zLYMB,igen,igen,2020-07-09_17h42.31.373,terkepesz_online,2020.1.3,Win32,60,,,,,,,,,,,,,,,f,1.4155,,,,,,,,ERP,1,stimuli/fractals/123a.jpg,75,-75,500,,,,0,56,56,56,1,57,1,2,stimuli/fractals/123a.jpg,stimuli/fractals/123c.jpg,stimuli/fractals/123b.jpg,75,-75,75,-225,-75,-75,-375,225,,,,,,,,,,,,,,,,,,,,,,,,,,,,,,,,,,,,,,,,,,,,,,,,,,,,,,,,,,,,,,,,,,,,,,,,,,,,,,,,,,,,,,,,
,,,,,,,,,,,,,,,,,6M9zLYMB,igen,igen,2020-07-09_17h42.31.373,terkepesz_online,2020.1.3,Win32,60,,,,,,,,,,,,,,,j,0.83413,,,,,,,,ERP,1,stimuli/fractals/4b.jpg,75,-225,2000,,,,0,57,57,57,1,58,1,3,stimuli/fractals/4b.jpg,stimuli/fractals/4c.jpg,stimuli/fractals/4a.jpg,75,-225,-75,-225,75,-75,-375,75,,,,,,,,,,,,,,,,,,,,,,,,,,,,,,,,,,,,,,,,,,,,,,,,,,,,,,,,,,,,,,,,,,,,,,,,,,,,,,,,,,,,,,,,
,,,,,,,,,,,,,,,,,6M9zLYMB,igen,igen,2020-07-09_17h42.31.373,terkepesz_online,2020.1.3,Win32,60,,,,,,,,,,,,,,,j,1.101335,,,,,,,,OLP,2,stimuli/fractals/98b.jpg,375,75,500,,,,0,58,58,58,1,59,1,0,stimuli/fractals/98a.jpg,stimuli/fractals/98b.jpg,stimuli/fractals/98c.jpg,375,75,375,225,225,75,-75,-225,,,,,,,,,,,,,,,,,,,,,,,,,,,,,,,,,,,,,,,,,,,,,,,,,,,,,,,,,,,,,,,,,,,,,,,,,,,,,,,,,,,,,,,,
,,,,,,,,,,,,,,,,,6M9zLYMB,igen,igen,2020-07-09_17h42.31.373,terkepesz_online,2020.1.3,Win32,60,,,,,,,,,,,,,,,j,0.80316,,,,,,,,ERP,2,stimuli/fractals/123a.jpg,75,-75,6000,,,,0,59,59,59,1,60,1,0,stimuli/fractals/123a.jpg,stimuli/fractals/123c.jpg,stimuli/fractals/123b.jpg,75,-75,75,-225,-75,-75,-375,225,,,,,,,,,,,,,,,,,,,,,,,,,,,,,,,,,,,,,,,,,,,,,,,,,,,,,,,,,,,,,,,,,,,,,,,,,,,,,,,,,,,,,,,,
,,,,,,,,,,,,,,,,,6M9zLYMB,igen,igen,2020-07-09_17h42.31.373,terkepesz_online,2020.1.3,Win32,60,,,,,,,,,,,,,,,j,1.51876,,,,,,,,LLP,2,stimuli/fractals/122a.jpg,-225,75,8000,,,,0,60,60,60,1,61,1,0,stimuli/fractals/122a.jpg,stimuli/fractals/122c.jpg,stimuli/fractals/122b.jpg,-225,-75,-225,75,-225,-225,375,225,,,,,,,,,,,,,,,,,,,,,,,,,,,,,,,,,,,,,,,,,,,,,,,,,,,,,,,,,,,,,,,,,,,,,,,,,,,,,,,,,,,,,,,,
,,,,,,,,,,,,,,,,,6M9zLYMB,igen,igen,2020-07-09_17h42.31.373,terkepesz_online,2020.1.3,Win32,60,,,,,,,,,,,,,,,j,1.06893,,,,,,,,ERP,2,stimuli/fractals/4b.jpg,75,-225,7000,,,,0,61,61,61,1,62,1,0,stimuli/fractals/4b.jpg,stimuli/fractals/4c.jpg,stimuli/fractals/4a.jpg,75,-225,-75,-225,75,-75,-375,75,,,,,,,,,,,,,,,,,,,,,,,,,,,,,,,,,,,,,,,,,,,,,,,,,,,,,,,,,,,,,,,,,,,,,,,,,,,,,,,,,,,,,,,,
,,,,,,,,,,,,,,,,,6M9zLYMB,igen,igen,2020-07-09_17h42.31.373,terkepesz_online,2020.1.3,Win32,60,,,,,,,,,,,,,,,j,1.827315,,,,,,,,BL,0,stimuli/fractals/35a.jpg,225,-75,1000,,,,0,62,62,62,1,63,1,0,stimuli/fractals/35a.jpg,stimuli/fractals/35c.jpg,stimuli/fractals/35b.jpg,225,-75,225,75,75,-75,-375,-225,,,,,,,,,,,,,,,,,,,,,,,,,,,,,,,,,,,,,,,,,,,,,,,,,,,,,,,,,,,,,,,,,,,,,,,,,,,,,,,,,,,,,,,,
,,,,,,,,,,,,,,,,,6M9zLYMB,igen,igen,2020-07-09_17h42.31.373,terkepesz_online,2020.1.3,Win32,60,,,,,,,,,,,,,,,f,1.188275,,,,,,,,OLP,1,stimuli/fractals/83c.jpg,375,-225,4000,,,,0,63,63,63,1,64,1,1,stimuli/fractals/83c.jpg,stimuli/fractals/83b.jpg,stimuli/fractals/83a.jpg,375,-225,375,-75,225,-225,-75,225,,,,,,,,,,,,,,,,,,,,,,,,,,,,,,,,,,,,,,,,,,,,,,,,,,,,,,,,,,,,,,,,,,,,,,,,,,,,,,,,,,,,,,,,
,,,,,,,,,,,,,,,,,6M9zLYMB,igen,igen,2020-07-09_17h42.31.373,terkepesz_online,2020.1.3,Win32,60,,,,,,,,,,,,,,,j,2.70203,,,,,,,,OLP,1,stimuli/fractals/20b.jpg,75,225,2000,,,,0,64,64,64,1,65,1,1,stimuli/fractals/20b.jpg,stimuli/fractals/20c.jpg,stimuli/fractals/20a.jpg,75,225,75,75,225,225,-375,-225,,,,,,,,,,,,,,,,,,,,,,,,,,,,,,,,,,,,,,,,,,,,,,,,,,,,,,,,,,,,,,,,,,,,,,,,,,,,,,,,,,,,,,,,
,,,,,,,,,,,,,,,,,6M9zLYMB,igen,igen,2020-07-09_17h42.31.373,terkepesz_online,2020.1.3,Win32,60,,,,,,,,,,,,,,,f,0.842215,,,,,,,,OLP,2,stimuli/fractals/83b.jpg,375,-225,4000,,,,0,65,65,65,1,66,1,0,stimuli/fractals/83c.jpg,stimuli/fractals/83b.jpg,stimuli/fractals/83a.jpg,375,-225,375,-75,225,-225,-75,225,,,,,,,,,,,,,,,,,,,,,,,,,,,,,,,,,,,,,,,,,,,,,,,,,,,,,,,,,,,,,,,,,,,,,,,,,,,,,,,,,,,,,,,,
,,,,,,,,,,,,,,,,,6M9zLYMB,igen,igen,2020-07-09_17h42.31.373,terkepesz_online,2020.1.3,Win32,60,,,,,,,,,,,,,,,j,0.99198,,,,,,,,OLP,2,stimuli/fractals/20c.jpg,75,225,1000,,,,0,66,66,66,1,67,1,0,stimuli/fractals/20b.jpg,stimuli/fractals/20c.jpg,stimuli/fractals/20a.jpg,75,225,75,75,225,225,-375,-225,,,,,,,,,,,,,,,,,,,,,,,,,,,,,,,,,,,,,,,,,,,,,,,,,,,,,,,,,,,,,,,,,,,,,,,,,,,,,,,,,,,,,,,,
,,,,,,,,,,,,,,,,,6M9zLYMB,igen,igen,2020-07-09_17h42.31.373,terkepesz_online,2020.1.3,Win32,60,,,,,,,,,,,,,,,f,1.334625,,,,,,,,OLP,1,stimuli/fractals/68a.jpg,-75,75,3000,,,,0,67,67,67,1,68,1,4,stimuli/fractals/68a.jpg,stimuli/fractals/68c.jpg,stimuli/fractals/68b.jpg,-75,75,-75,-75,-75,225,375,-225,,,,,,,,,,,,,,,,,,,,,,,,,,,,,,,,,,,,,,,,,,,,,,,,,,,,,,,,,,,,,,,,,,,,,,,,,,,,,,,,,,,,,,,,
,,,,,,,,,,,,,,,,,6M9zLYMB,igen,igen,2020-07-09_17h42.31.373,terkepesz_online,2020.1.3,Win32,60,,,,,,,,,,,,,,,j,1.3157,,,,,,,,LLP,1,stimuli/fractals/57b.jpg,75,75,1000,,,,0,68,68,68,1,69,1,2,stimuli/fractals/57b.jpg,stimuli/fractals/57a.jpg,stimuli/fractals/57c.jpg,75,75,-75,75,75,-75,-375,-225,,,,,,,,,,,,,,,,,,,,,,,,,,,,,,,,,,,,,,,,,,,,,,,,,,,,,,,,,,,,,,,,,,,,,,,,,,,,,,,,,,,,,,,,
,,,,,,,,,,,,,,,,,6M9zLYMB,igen,igen,2020-07-09_17h42.31.373,terkepesz_online,2020.1.3,Win32,60,,,,,,,,,,,,,,,j,0.958795,,,,,,,,OLP,1,stimuli/fractals/27b.jpg,225,-225,1000,,,,0,69,69,69,1,70,1,3,stimuli/fractals/27b.jpg,stimuli/fractals/27a.jpg,stimuli/fractals/27c.jpg,225,-225,75,-225,375,-225,-375,225,,,,,,,,,,,,,,,,,,,,,,,,,,,,,,,,,,,,,,,,,,,,,,,,,,,,,,,,,,,,,,,,,,,,,,,,,,,,,,,,,,,,,,,,
,,,,,,,,,,,,,,,,,6M9zLYMB,igen,igen,2020-07-09_17h42.31.373,terkepesz_online,2020.1.3,Win32,60,,,,,,,,,,,,,,,f,0.919805,,,,,,,,ERP,1,stimuli/fractals/65a.jpg,-75,-75,500,,,,0,70,70,70,1,71,1,5,stimuli/fractals/65a.jpg,stimuli/fractals/65b.jpg,stimuli/fractals/65c.jpg,-75,-75,-225,-75,-75,75,375,225,,,,,,,,,,,,,,,,,,,,,,,,,,,,,,,,,,,,,,,,,,,,,,,,,,,,,,,,,,,,,,,,,,,,,,,,,,,,,,,,,,,,,,,,
,,,,,,,,,,,,,,,,,6M9zLYMB,igen,igen,2020-07-09_17h42.31.373,terkepesz_online,2020.1.3,Win32,60,,,,,,,,,,,,,,,f,1.65349,,,,,,,,LLP,2,stimuli/fractals/57b.jpg,-75,75,7000,,,,0,71,71,71,1,72,1,0,stimuli/fractals/57b.jpg,stimuli/fractals/57a.jpg,stimuli/fractals/57c.jpg,75,75,-75,75,75,-75,-375,-225,,,,,,,,,,,,,,,,,,,,,,,,,,,,,,,,,,,,,,,,,,,,,,,,,,,,,,,,,,,,,,,,,,,,,,,,,,,,,,,,,,,,,,,,
,,,,,,,,,,,,,,,,,6M9zLYMB,igen,igen,2020-07-09_17h42.31.373,terkepesz_online,2020.1.3,Win32,60,,,,,,,,,,,,,,,f,1.34808,,,,,,,,OLP,2,stimuli/fractals/68c.jpg,-75,75,4000,,,,0,72,72,72,1,73,1,0,stimuli/fractals/68a.jpg,stimuli/fractals/68c.jpg,stimuli/fractals/68b.jpg,-75,75,-75,-75,-75,225,375,-225,,,,,,,,,,,,,,,,,,,,,,,,,,,,,,,,,,,,,,,,,,,,,,,,,,,,,,,,,,,,,,,,,,,,,,,,,,,,,,,,,,,,,,,,
,,,,,,,,,,,,,,,,,6M9zLYMB,igen,igen,2020-07-09_17h42.31.373,terkepesz_online,2020.1.3,Win32,60,,,,,,,,,,,,,,,j,0.887795,,,,,,,,OLP,2,stimuli/fractals/27a.jpg,225,-225,2000,,,,0,73,73,73,1,74,1,0,stimuli/fractals/27b.jpg,stimuli/fractals/27a.jpg,stimuli/fractals/27c.jpg,225,-225,75,-225,375,-225,-375,225,,,,,,,,,,,,,,,,,,,,,,,,,,,,,,,,,,,,,,,,,,,,,,,,,,,,,,,,,,,,,,,,,,,,,,,,,,,,,,,,,,,,,,,,
,,,,,,,,,,,,,,,,,6M9zLYMB,igen,igen,2020-07-09_17h42.31.373,terkepesz_online,2020.1.3,Win32,60,,,,,,,,,,,,,,,j,1.04095,,,,,,,,LLP,1,stimuli/fractals/94c.jpg,225,225,2000,,,,0,74,74,74,1,75,1,5,stimuli/fractals/94c.jpg,stimuli/fractals/94b.jpg,stimuli/fractals/94a.jpg,225,225,375,225,225,75,-75,-225,,,,,,,,,,,,,,,,,,,,,,,,,,,,,,,,,,,,,,,,,,,,,,,,,,,,,,,,,,,,,,,,,,,,,,,,,,,,,,,,,,,,,,,,
,,,,,,,,,,,,,,,,,6M9zLYMB,igen,igen,2020-07-09_17h42.31.373,terkepesz_online,2020.1.3,Win32,60,,,,,,,,,,,,,,,f,1.20643,,,,,,,,OLP,1,stimuli/fractals/69b.jpg,-225,-75,2000,,,,0,75,75,75,1,76,1,3,stimuli/fractals/69b.jpg,stimuli/fractals/69c.jpg,stimuli/fractals/69a.jpg,-225,-75,-75,-75,-375,-75,375,75,,,,,,,,,,,,,,,,,,,,,,,,,,,,,,,,,,,,,,,,,,,,,,,,,,,,,,,,,,,,,,,,,,,,,,,,,,,,,,,,,,,,,,,,
,,,,,,,,,,,,,,,,,6M9zLYMB,igen,igen,2020-07-09_17h42.31.373,terkepesz_online,2020.1.3,Win32,60,,,,,,,,,,,,,,,j,1.087745,,,,,,,,ERP,2,stimuli/fractals/65a.jpg,-75,-75,1000,,,,0,76,76,76,1,77,1,0,stimuli/fractals/65a.jpg,stimuli/fractals/65b.jpg,stimuli/fractals/65c.jpg,-75,-75,-225,-75,-75,75,375,225,,,,,,,,,,,,,,,,,,,,,,,,,,,,,,,,,,,,,,,,,,,,,,,,,,,,,,,,,,,,,,,,,,,,,,,,,,,,,,,,,,,,,,,,
,,,,,,,,,,,,,,,,,6M9zLYMB,igen,igen,2020-07-09_17h42.31.373,terkepesz_online,2020.1.3,Win32,60,,,,,,,,,,,,,,,j,1.571455,,,,,,,,OLP,1,stimuli/fractals/97a.jpg,-75,225,7000,,,,0,77,77,77,1,78,1,4,stimuli/fractals/97a.jpg,stimuli/fractals/97c.jpg,stimuli/fractals/97b.jpg,-75,225,75,225,-75,75,375,-225,,,,,,,,,,,,,,,,,,,,,,,,,,,,,,,,,,,,,,,,,,,,,,,,,,,,,,,,,,,,,,,,,,,,,,,,,,,,,,,,,,,,,,,,
,,,,,,,,,,,,,,,,,6M9zLYMB,igen,igen,2020-07-09_17h42.31.373,terkepesz_online,2020.1.3,Win32,60,,,,,,,,,,,,,,,j,1.80492,,,,,,,,ERP,1,stimuli/fractals/128a.jpg,-375,-75,1000,,,,0,78,78,78,1,79,1,2,stimuli/fractals/128a.jpg,stimuli/fractals/128b.jpg,stimuli/fractals/128c.jpg,-375,-75,-375,75,-225,-75,375,-225,,,,,,,,,,,,,,,,,,,,,,,,,,,,,,,,,,,,,,,,,,,,,,,,,,,,,,,,,,,,,,,,,,,,,,,,,,,,,,,,,,,,,,,,
,,,,,,,,,,,,,,,,,6M9zLYMB,igen,igen,2020-07-09_17h42.31.373,terkepesz_online,2020.1.3,Win32,60,,,,,,,,,,,,,,,j,1.571665,,,,,,,,OLP,2,stimuli/fractals/69c.jpg,-225,-75,1000,,,,0,79,79,79,1,80,1,0,stimuli/fractals/69b.jpg,stimuli/fractals/69c.jpg,stimuli/fractals/69a.jpg,-225,-75,-75,-75,-375,-75,375,75,,,,,,,,,,,,,,,,,,,,,,,,,,,,,,,,,,,,,,,,,,,,,,,,,,,,,,,,,,,,,,,,,,,,,,,,,,,,,,,,,,,,,,,,
,,,,,,,,,,,,,,,,,6M9zLYMB,igen,igen,2020-07-09_17h42.31.373,terkepesz_online,2020.1.3,Win32,60,,,,,,,,,,,,,,,f,1.435735,,,,,,,,LLP,2,stimuli/fractals/94c.jpg,375,225,1000,,,,0,80,80,80,1,81,1,0,stimuli/fractals/94c.jpg,stimuli/fractals/94b.jpg,stimuli/fractals/94a.jpg,225,225,375,225,225,75,-75,-225,,,,,,,,,,,,,,,,,,,,,,,,,,,,,,,,,,,,,,,,,,,,,,,,,,,,,,,,,,,,,,,,,,,,,,,,,,,,,,,,,,,,,,,,
,,,,,,,,,,,,,,,,,6M9zLYMB,igen,igen,2020-07-09_17h42.31.373,terkepesz_online,2020.1.3,Win32,60,,,,,,,,,,,,,,,j,1.295655,,,,,,,,ERP,2,stimuli/fractals/128a.jpg,-375,-75,4000,,,,0,81,81,81,1,82,1,0,stimuli/fractals/128a.jpg,stimuli/fractals/128b.jpg,stimuli/fractals/128c.jpg,-375,-75,-375,75,-225,-75,375,-225,,,,,,,,,,,,,,,,,,,,,,,,,,,,,,,,,,,,,,,,,,,,,,,,,,,,,,,,,,,,,,,,,,,,,,,,,,,,,,,,,,,,,,,,
,,,,,,,,,,,,,,,,,6M9zLYMB,igen,igen,2020-07-09_17h42.31.373,terkepesz_online,2020.1.3,Win32,60,,,,,,,,,,,,,,,j,1.27347,,,,,,,,OLP,2,stimuli/fractals/97c.jpg,-75,225,1000,,,,0,82,82,82,1,83,1,0,stimuli/fractals/97a.jpg,stimuli/fractals/97c.jpg,stimuli/fractals/97b.jpg,-75,225,75,225,-75,75,375,-225,,,,,,,,,,,,,,,,,,,,,,,,,,,,,,,,,,,,,,,,,,,,,,,,,,,,,,,,,,,,,,,,,,,,,,,,,,,,,,,,,,,,,,,,
,,,,,,,,,,,,,,,,,6M9zLYMB,igen,igen,2020-07-09_17h42.31.373,terkepesz_online,2020.1.3,Win32,60,,,,,,,,,,,,,,,j,1.15276,,,,,,,,BL,0,stimuli/fractals/35a.jpg,225,-75,3000,,,,0,83,83,83,1,84,1,0,stimuli/fractals/35a.jpg,stimuli/fractals/35c.jpg,stimuli/fractals/35b.jpg,225,-75,225,75,75,-75,-375,-225,,,,,,,,,,,,,,,,,,,,,,,,,,,,,,,,,,,,,,,,,,,,,,,,,,,,,,,,,,,,,,,,,,,,,,,,,,,,,,,,,,,,,,,,
,,j,0,7.82261,right,,,,,,"Mit gondol, ebben a körben milyen arányban tudott figyelni a képekre? Kérjük, válaszoljon őszintén. Válasza a vizsgálat bejefezésével járó jutalom (kredit, ajándékutalvány) értékét nem befolyásolja.",D: 0-24%    F: 25-49%    J: 50-74%    K: 75-100%,k,Köszönjük!,"Kevesebb, mint 75%-ban tudott a képekre figyelni.","Kérjük, próbáljon meg a továbbiakban figyelni a képekre. ",6M9zLYMB,igen,igen,2020-07-09_17h42.31.373,terkepesz_online,2020.1.3,Win32,60,,,,,,,,,,,,,,,,,,,,,,,,,,,,,,,,,,,,,,,,,,,,,,,,,,,,,5.1911,0,0,0,0,1,,,,,,,,,,,,,,,,,,,,,,,,,,,,,,,,,,,,,,,,,,,,,,,,,,,,,,,,,,,,,,,,,,,,,,,,,,,,,,,,,
,,j,0,22.543985,right,,,,,,"Mit gondol, ebben a körben milyen arányban tudott figyelni a képek helyére? Kérjük, válaszoljon őszintén. Válasza a vizsgálat bejefezésével járó jutalom (kredit, ajándékutalvány) értékét nem befolyásolja.",D: 0-24%    F: 25-49%    J: 50-74%    K: 75-100%,k,Köszönjük!,"Kevesebb, mint 75%-ban tudott a képek helyszínére figyelni.","Kérjük, próbáljon meg a továbbiakban figyelni a képek helyszínére. ",6M9zLYMB,igen,igen,2020-07-09_17h42.31.373,terkepesz_online,2020.1.3,Win32,60,,,,,,,,,,,,,,,,,,,,,,,,,,,,,,,,,,,,,,,,,,,,,,,,,,,,,7.304965,0,1,1,1,1,,,,,,,,,,,,,,,,,,,,,,,,,,,,,,,,,,,,,,,,,,,,,,,,,,,,,,,,,,,,,,,,,,,,,,,,,,,,,,,,,
,,,,,,,,,,,,,,,,,6M9zLYMB,igen,igen,2020-07-09_17h42.31.373,terkepesz_online,2020.1.3,Win32,60,,,,,,,,,,,,,,,,,,,,,,,,,,,,,,,,,,,,,,,,,,,,,,,,,,,,,,,,,,,right,7.086835,0,0,0,0,1,,,,,,,,,,,,,,,,,,,,,,,,,,,,,,,,,,,,,,,,,,,,,,,,,,,,,,,,,,,,,,,,,,,,,,,,,,
,,,,,,,,,,,,,,,,,6M9zLYMB,igen,igen,2020-07-09_17h42.31.373,terkepesz_online,2020.1.3,Win32,60,,,,,,,,,,,,,,,j,1.569425,,,,,,,,LLP,1,stimuli/fractals/119a.jpg,225,75,500,,,,0,0,0,0,1,85,2,1,stimuli/fractals/119a.jpg,stimuli/fractals/119b.jpg,stimuli/fractals/119c.jpg,225,75,225,225,375,75,-225,-225,,,,,,,,,,,,,,,,,,,,,,,,,,,,,,,,,,,,,,,,,,,,,,,,,,,,,,,,,,,,,,,,,,,,,,,,,,,,,,,,,,,,,,,,
,,,,,,,,,,,,,,,,,6M9zLYMB,igen,igen,2020-07-09_17h42.31.373,terkepesz_online,2020.1.3,Win32,60,,,,,,,,,,,,,,,f,0.86878,,,,,,,,OLP,1,stimuli/fractals/47c.jpg,-225,225,3000,,,,0,1,1,1,1,86,2,2,stimuli/fractals/47c.jpg,stimuli/fractals/47a.jpg,stimuli/fractals/47b.jpg,-225,225,-375,225,-225,75,75,-225,,,,,,,,,,,,,,,,,,,,,,,,,,,,,,,,,,,,,,,,,,,,,,,,,,,,,,,,,,,,,,,,,,,,,,,,,,,,,,,,,,,,,,,,
,,,,,,,,,,,,,,,,,6M9zLYMB,igen,igen,2020-07-09_17h42.31.373,terkepesz_online,2020.1.3,Win32,60,,,,,,,,,,,,,,,j,0.875835,,,,,,,,LLP,2,stimuli/fractals/119a.jpg,225,225,2000,,,,0,2,2,2,1,87,2,0,stimuli/fractals/119a.jpg,stimuli/fractals/119b.jpg,stimuli/fractals/119c.jpg,225,75,225,225,375,75,-225,-225,,,,,,,,,,,,,,,,,,,,,,,,,,,,,,,,,,,,,,,,,,,,,,,,,,,,,,,,,,,,,,,,,,,,,,,,,,,,,,,,,,,,,,,,
,,,,,,,,,,,,,,,,,6M9zLYMB,igen,igen,2020-07-09_17h42.31.373,terkepesz_online,2020.1.3,Win32,60,,,,,,,,,,,,,,,j,1.055635,,,,,,,,OLP,1,stimuli/fractals/16a.jpg,-75,-75,3000,,,,0,3,3,3,1,88,2,1,stimuli/fractals/16a.jpg,stimuli/fractals/16b.jpg,stimuli/fractals/16c.jpg,-75,-75,-75,75,-75,-225,375,225,,,,,,,,,,,,,,,,,,,,,,,,,,,,,,,,,,,,,,,,,,,,,,,,,,,,,,,,,,,,,,,,,,,,,,,,,,,,,,,,,,,,,,,,
,,,,,,,,,,,,,,,,,6M9zLYMB,igen,igen,2020-07-09_17h42.31.373,terkepesz_online,2020.1.3,Win32,60,,,,,,,,,,,,,,,j,0.765325,,,,,,,,OLP,2,stimuli/fractals/47a.jpg,-225,225,3000,,,,0,4,4,4,1,89,2,0,stimuli/fractals/47c.jpg,stimuli/fractals/47a.jpg,stimuli/fractals/47b.jpg,-225,225,-375,225,-225,75,75,-225,,,,,,,,,,,,,,,,,,,,,,,,,,,,,,,,,,,,,,,,,,,,,,,,,,,,,,,,,,,,,,,,,,,,,,,,,,,,,,,,,,,,,,,,
,,,,,,,,,,,,,,,,,6M9zLYMB,igen,igen,2020-07-09_17h42.31.373,terkepesz_online,2020.1.3,Win32,60,,,,,,,,,,,,,,,j,1.171025,,,,,,,,OLP,2,stimuli/fractals/16b.jpg,-75,-75,4000,,,,0,5,5,5,1,90,2,0,stimuli/fractals/16a.jpg,stimuli/fractals/16b.jpg,stimuli/fractals/16c.jpg,-75,-75,-75,75,-75,-225,375,225,,,,,,,,,,,,,,,,,,,,,,,,,,,,,,,,,,,,,,,,,,,,,,,,,,,,,,,,,,,,,,,,,,,,,,,,,,,,,,,,,,,,,,,,
,,,,,,,,,,,,,,,,,6M9zLYMB,igen,igen,2020-07-09_17h42.31.373,terkepesz_online,2020.1.3,Win32,60,,,,,,,,,,,,,,,j,0.98332,,,,,,,,ERP,1,stimuli/fractals/44a.jpg,-375,75,3000,,,,0,6,6,6,1,91,2,3,stimuli/fractals/44a.jpg,stimuli/fractals/44b.jpg,stimuli/fractals/44c.jpg,-375,75,-375,225,-225,75,225,-225,,,,,,,,,,,,,,,,,,,,,,,,,,,,,,,,,,,,,,,,,,,,,,,,,,,,,,,,,,,,,,,,,,,,,,,,,,,,,,,,,,,,,,,,
,,,,,,,,,,,,,,,,,6M9zLYMB,igen,igen,2020-07-09_17h42.31.373,terkepesz_online,2020.1.3,Win32,60,,,,,,,,,,,,,,,j,0.64231,,,,,,,,ERP,1,stimuli/fractals/66b.jpg,225,75,2000,,,,0,7,7,7,1,92,2,3,stimuli/fractals/66b.jpg,stimuli/fractals/66a.jpg,stimuli/fractals/66c.jpg,225,75,225,225,375,75,-375,-75,,,,,,,,,,,,,,,,,,,,,,,,,,,,,,,,,,,,,,,,,,,,,,,,,,,,,,,,,,,,,,,,,,,,,,,,,,,,,,,,,,,,,,,,
,,,,,,,,,,,,,,,,,6M9zLYMB,igen,igen,2020-07-09_17h42.31.373,terkepesz_online,2020.1.3,Win32,60,,,,,,,,,,,,,,,f,0.99838,,,,,,,,OLP,1,stimuli/fractals/75c.jpg,-75,-225,8000,,,,0,8,8,8,1,93,2,5,stimuli/fractals/75c.jpg,stimuli/fractals/75a.jpg,stimuli/fractals/75b.jpg,-75,-225,75,-225,-225,-225,-375,225,,,,,,,,,,,,,,,,,,,,,,,,,,,,,,,,,,,,,,,,,,,,,,,,,,,,,,,,,,,,,,,,,,,,,,,,,,,,,,,,,,,,,,,,
,,,,,,,,,,,,,,,,,6M9zLYMB,igen,igen,2020-07-09_17h42.31.373,terkepesz_online,2020.1.3,Win32,60,,,,,,,,,,,,,,,j,0.869805,,,,,,,,LLP,1,stimuli/fractals/120a.jpg,-375,225,1000,,,,0,9,9,9,1,94,2,5,stimuli/fractals/120a.jpg,stimuli/fractals/120c.jpg,stimuli/fractals/120b.jpg,-375,225,-375,75,-225,225,375,-225,,,,,,,,,,,,,,,,,,,,,,,,,,,,,,,,,,,,,,,,,,,,,,,,,,,,,,,,,,,,,,,,,,,,,,,,,,,,,,,,,,,,,,,,
,,,,,,,,,,,,,,,,,6M9zLYMB,igen,igen,2020-07-09_17h42.31.373,terkepesz_online,2020.1.3,Win32,60,,,,,,,,,,,,,,,j,0.876265,,,,,,,,ERP,2,stimuli/fractals/44a.jpg,-375,75,500,,,,0,10,10,10,1,95,2,0,stimuli/fractals/44a.jpg,stimuli/fractals/44b.jpg,stimuli/fractals/44c.jpg,-375,75,-375,225,-225,75,225,-225,,,,,,,,,,,,,,,,,,,,,,,,,,,,,,,,,,,,,,,,,,,,,,,,,,,,,,,,,,,,,,,,,,,,,,,,,,,,,,,,,,,,,,,,
,,,,,,,,,,,,,,,,,6M9zLYMB,igen,igen,2020-07-09_17h42.31.373,terkepesz_online,2020.1.3,Win32,60,,,,,,,,,,,,,,,j,0.653465,,,,,,,,ERP,2,stimuli/fractals/66b.jpg,225,75,2000,,,,0,11,11,11,1,96,2,0,stimuli/fractals/66b.jpg,stimuli/fractals/66a.jpg,stimuli/fractals/66c.jpg,225,75,225,225,375,75,-375,-75,,,,,,,,,,,,,,,,,,,,,,,,,,,,,,,,,,,,,,,,,,,,,,,,,,,,,,,,,,,,,,,,,,,,,,,,,,,,,,,,,,,,,,,,
,,,,,,,,,,,,,,,,,6M9zLYMB,igen,igen,2020-07-09_17h42.31.373,terkepesz_online,2020.1.3,Win32,60,,,,,,,,,,,,,,,j,0.921625,,,,,,,,LLP,1,stimuli/fractals/24c.jpg,225,75,2000,,,,0,12,12,12,1,97,2,4,stimuli/fractals/24c.jpg,stimuli/fractals/24a.jpg,stimuli/fractals/24b.jpg,225,75,75,75,225,225,-225,-225,,,,,,,,,,,,,,,,,,,,,,,,,,,,,,,,,,,,,,,,,,,,,,,,,,,,,,,,,,,,,,,,,,,,,,,,,,,,,,,,,,,,,,,,
,,,,,,,,,,,,,,,,,6M9zLYMB,igen,igen,2020-07-09_17h42.31.373,terkepesz_online,2020.1.3,Win32,60,,,,,,,,,,,,,,,j,0.777055,,,,,,,,ERP,1,stimuli/fractals/144a.jpg,375,75,6000,,,,0,13,13,13,1,98,2,4,stimuli/fractals/144a.jpg,stimuli/fractals/144b.jpg,stimuli/fractals/144c.jpg,375,75,375,-75,225,75,-375,-225,,,,,,,,,,,,,,,,,,,,,,,,,,,,,,,,,,,,,,,,,,,,,,,,,,,,,,,,,,,,,,,,,,,,,,,,,,,,,,,,,,,,,,,,
,,,,,,,,,,,,,,,,,6M9zLYMB,igen,igen,2020-07-09_17h42.31.373,terkepesz_online,2020.1.3,Win32,60,,,,,,,,,,,,,,,j,0.728495,,,,,,,,OLP,2,stimuli/fractals/75a.jpg,-75,-225,4000,,,,0,14,14,14,1,99,2,0,stimuli/fractals/75c.jpg,stimuli/fractals/75a.jpg,stimuli/fractals/75b.jpg,-75,-225,75,-225,-225,-225,-375,225,,,,,,,,,,,,,,,,,,,,,,,,,,,,,,,,,,,,,,,,,,,,,,,,,,,,,,,,,,,,,,,,,,,,,,,,,,,,,,,,,,,,,,,,
,,,,,,,,,,,,,,,,,6M9zLYMB,igen,igen,2020-07-09_17h42.31.373,terkepesz_online,2020.1.3,Win32,60,,,,,,,,,,,,,,,j,0.6674,,,,,,,,LLP,2,stimuli/fractals/120a.jpg,-375,75,3000,,,,0,15,15,15,1,100,2,0,stimuli/fractals/120a.jpg,stimuli/fractals/120c.jpg,stimuli/fractals/120b.jpg,-375,225,-375,75,-225,225,375,-225,,,,,,,,,,,,,,,,,,,,,,,,,,,,,,,,,,,,,,,,,,,,,,,,,,,,,,,,,,,,,,,,,,,,,,,,,,,,,,,,,,,,,,,,
,,,,,,,,,,,,,,,,,6M9zLYMB,igen,igen,2020-07-09_17h42.31.373,terkepesz_online,2020.1.3,Win32,60,,,,,,,,,,,,,,,j,0.87391,,,,,,,,LLP,1,stimuli/fractals/52c.jpg,225,-75,6000,,,,0,16,16,16,1,101,2,2,stimuli/fractals/52c.jpg,stimuli/fractals/52b.jpg,stimuli/fractals/52a.jpg,225,-75,225,75,225,-225,-375,225,,,,,,,,,,,,,,,,,,,,,,,,,,,,,,,,,,,,,,,,,,,,,,,,,,,,,,,,,,,,,,,,,,,,,,,,,,,,,,,,,,,,,,,,
,,,,,,,,,,,,,,,,,6M9zLYMB,igen,igen,2020-07-09_17h42.31.373,terkepesz_online,2020.1.3,Win32,60,,,,,,,,,,,,,,,f,2.10625,,,,,,,,LLP,2,stimuli/fractals/24c.jpg,75,75,2000,,,,0,17,17,17,1,102,2,0,stimuli/fractals/24c.jpg,stimuli/fractals/24a.jpg,stimuli/fractals/24b.jpg,225,75,75,75,225,225,-225,-225,,,,,,,,,,,,,,,,,,,,,,,,,,,,,,,,,,,,,,,,,,,,,,,,,,,,,,,,,,,,,,,,,,,,,,,,,,,,,,,,,,,,,,,,
,,,,,,,,,,,,,,,,,6M9zLYMB,igen,igen,2020-07-09_17h42.31.373,terkepesz_online,2020.1.3,Win32,60,,,,,,,,,,,,,,,j,1.00553,,,,,,,,ERP,2,stimuli/fractals/144a.jpg,375,75,1000,,,,0,18,18,18,1,103,2,0,stimuli/fractals/144a.jpg,stimuli/fractals/144b.jpg,stimuli/fractals/144c.jpg,375,75,375,-75,225,75,-375,-225,,,,,,,,,,,,,,,,,,,,,,,,,,,,,,,,,,,,,,,,,,,,,,,,,,,,,,,,,,,,,,,,,,,,,,,,,,,,,,,,,,,,,,,,
,,,,,,,,,,,,,,,,,6M9zLYMB,igen,igen,2020-07-09_17h42.31.373,terkepesz_online,2020.1.3,Win32,60,,,,,,,,,,,,,,,j,1.31789,,,,,,,,LLP,2,stimuli/fractals/52c.jpg,225,75,3000,,,,0,19,19,19,1,104,2,0,stimuli/fractals/52c.jpg,stimuli/fractals/52b.jpg,stimuli/fractals/52a.jpg,225,-75,225,75,225,-225,-375,225,,,,,,,,,,,,,,,,,,,,,,,,,,,,,,,,,,,,,,,,,,,,,,,,,,,,,,,,,,,,,,,,,,,,,,,,,,,,,,,,,,,,,,,,
,,,,,,,,,,,,,,,,,6M9zLYMB,igen,igen,2020-07-09_17h42.31.373,terkepesz_online,2020.1.3,Win32,60,,,,,,,,,,,,,,,j,0.954965,,,,,,,,BL,0,stimuli/fractals/35a.jpg,225,-75,1000,,,,0,20,20,20,1,105,2,0,stimuli/fractals/35a.jpg,stimuli/fractals/35c.jpg,stimuli/fractals/35b.jpg,225,-75,225,75,75,-75,-375,-225,,,,,,,,,,,,,,,,,,,,,,,,,,,,,,,,,,,,,,,,,,,,,,,,,,,,,,,,,,,,,,,,,,,,,,,,,,,,,,,,,,,,,,,,
,,,,,,,,,,,,,,,,,6M9zLYMB,igen,igen,2020-07-09_17h42.31.373,terkepesz_online,2020.1.3,Win32,60,,,,,,,,,,,,,,,j,1.90781,,,,,,,,ERP,1,stimuli/fractals/86a.jpg,225,-225,1000,,,,0,21,21,21,1,106,2,4,stimuli/fractals/86a.jpg,stimuli/fractals/86c.jpg,stimuli/fractals/86b.jpg,225,-225,75,-225,225,-75,-375,75,,,,,,,,,,,,,,,,,,,,,,,,,,,,,,,,,,,,,,,,,,,,,,,,,,,,,,,,,,,,,,,,,,,,,,,,,,,,,,,,,,,,,,,,
,,,,,,,,,,,,,,,,,6M9zLYMB,igen,igen,2020-07-09_17h42.31.373,terkepesz_online,2020.1.3,Win32,60,,,,,,,,,,,,,,,f,1.105415,,,,,,,,OLP,1,stimuli/fractals/34a.jpg,-225,75,1000,,,,0,22,22,22,1,107,2,5,stimuli/fractals/34a.jpg,stimuli/fractals/34c.jpg,stimuli/fractals/34b.jpg,-225,75,-375,75,-75,75,225,-225,,,,,,,,,,,,,,,,,,,,,,,,,,,,,,,,,,,,,,,,,,,,,,,,,,,,,,,,,,,,,,,,,,,,,,,,,,,,,,,,,,,,,,,,
,,,,,,,,,,,,,,,,,6M9zLYMB,igen,igen,2020-07-09_17h42.31.373,terkepesz_online,2020.1.3,Win32,60,,,,,,,,,,,,,,,j,0.973335,,,,,,,,LLP,1,stimuli/fractals/55c.jpg,375,-225,5000,,,,0,23,23,23,1,108,2,5,stimuli/fractals/55c.jpg,stimuli/fractals/55a.jpg,stimuli/fractals/55b.jpg,375,-225,375,-75,225,-225,-375,225,,,,,,,,,,,,,,,,,,,,,,,,,,,,,,,,,,,,,,,,,,,,,,,,,,,,,,,,,,,,,,,,,,,,,,,,,,,,,,,,,,,,,,,,
,,,,,,,,,,,,,,,,,6M9zLYMB,igen,igen,2020-07-09_17h42.31.373,terkepesz_online,2020.1.3,Win32,60,,,,,,,,,,,,,,,j,0.758105,,,,,,,,OLP,1,stimuli/fractals/33b.jpg,225,-75,2000,,,,0,24,24,24,1,109,2,2,stimuli/fractals/33b.jpg,stimuli/fractals/33c.jpg,stimuli/fractals/33a.jpg,225,-75,225,-225,75,-75,-375,-225,,,,,,,,,,,,,,,,,,,,,,,,,,,,,,,,,,,,,,,,,,,,,,,,,,,,,,,,,,,,,,,,,,,,,,,,,,,,,,,,,,,,,,,,
,,,,,,,,,,,,,,,,,6M9zLYMB,igen,igen,2020-07-09_17h42.31.373,terkepesz_online,2020.1.3,Win32,60,,,,,,,,,,,,,,,j,1.146145,,,,,,,,ERP,1,stimuli/fractals/127b.jpg,375,75,1000,,,,0,25,25,25,1,110,2,4,stimuli/fractals/127b.jpg,stimuli/fractals/127c.jpg,stimuli/fractals/127a.jpg,375,75,375,-75,225,75,-225,225,,,,,,,,,,,,,,,,,,,,,,,,,,,,,,,,,,,,,,,,,,,,,,,,,,,,,,,,,,,,,,,,,,,,,,,,,,,,,,,,,,,,,,,,
,,,,,,,,,,,,,,,,,6M9zLYMB,igen,igen,2020-07-09_17h42.31.373,terkepesz_online,2020.1.3,Win32,60,,,,,,,,,,,,,,,j,0.729395,,,,,,,,ERP,2,stimuli/fractals/86a.jpg,225,-225,2000,,,,0,26,26,26,1,111,2,0,stimuli/fractals/86a.jpg,stimuli/fractals/86c.jpg,stimuli/fractals/86b.jpg,225,-225,75,-225,225,-75,-375,75,,,,,,,,,,,,,,,,,,,,,,,,,,,,,,,,,,,,,,,,,,,,,,,,,,,,,,,,,,,,,,,,,,,,,,,,,,,,,,,,,,,,,,,,
,,,,,,,,,,,,,,,,,6M9zLYMB,igen,igen,2020-07-09_17h42.31.373,terkepesz_online,2020.1.3,Win32,60,,,,,,,,,,,,,,,j,1.12051,,,,,,,,OLP,2,stimuli/fractals/33c.jpg,225,-75,5000,,,,0,27,27,27,1,112,2,0,stimuli/fractals/33b.jpg,stimuli/fractals/33c.jpg,stimuli/fractals/33a.jpg,225,-75,225,-225,75,-75,-375,-225,,,,,,,,,,,,,,,,,,,,,,,,,,,,,,,,,,,,,,,,,,,,,,,,,,,,,,,,,,,,,,,,,,,,,,,,,,,,,,,,,,,,,,,,
,,,,,,,,,,,,,,,,,6M9zLYMB,igen,igen,2020-07-09_17h42.31.373,terkepesz_online,2020.1.3,Win32,60,,,,,,,,,,,,,,,j,1.3724,,,,,,,,OLP,2,stimuli/fractals/34c.jpg,-225,75,1000,,,,0,28,28,28,1,113,2,0,stimuli/fractals/34a.jpg,stimuli/fractals/34c.jpg,stimuli/fractals/34b.jpg,-225,75,-375,75,-75,75,225,-225,,,,,,,,,,,,,,,,,,,,,,,,,,,,,,,,,,,,,,,,,,,,,,,,,,,,,,,,,,,,,,,,,,,,,,,,,,,,,,,,,,,,,,,,
,,,,,,,,,,,,,,,,,6M9zLYMB,igen,igen,2020-07-09_17h42.31.373,terkepesz_online,2020.1.3,Win32,60,,,,,,,,,,,,,,,j,0.834345,,,,,,,,LLP,2,stimuli/fractals/55c.jpg,375,-75,1000,,,,0,29,29,29,1,114,2,0,stimuli/fractals/55c.jpg,stimuli/fractals/55a.jpg,stimuli/fractals/55b.jpg,375,-225,375,-75,225,-225,-375,225,,,,,,,,,,,,,,,,,,,,,,,,,,,,,,,,,,,,,,,,,,,,,,,,,,,,,,,,,,,,,,,,,,,,,,,,,,,,,,,,,,,,,,,,
,,,,,,,,,,,,,,,,,6M9zLYMB,igen,igen,2020-07-09_17h42.31.373,terkepesz_online,2020.1.3,Win32,60,,,,,,,,,,,,,,,j,1.291555,,,,,,,,ERP,2,stimuli/fractals/127b.jpg,375,75,2000,,,,0,30,30,30,1,115,2,0,stimuli/fractals/127b.jpg,stimuli/fractals/127c.jpg,stimuli/fractals/127a.jpg,375,75,375,-75,225,75,-225,225,,,,,,,,,,,,,,,,,,,,,,,,,,,,,,,,,,,,,,,,,,,,,,,,,,,,,,,,,,,,,,,,,,,,,,,,,,,,,,,,,,,,,,,,
,,,,,,,,,,,,,,,,,6M9zLYMB,igen,igen,2020-07-09_17h42.31.373,terkepesz_online,2020.1.3,Win32,60,,,,,,,,,,,,,,,f,1.62008,,,,,,,,ERP,1,stimuli/fractals/101a.jpg,-375,75,5000,,,,0,31,31,31,1,116,2,3,stimuli/fractals/101a.jpg,stimuli/fractals/101c.jpg,stimuli/fractals/101b.jpg,-375,75,-375,225,-375,-75,375,75,,,,,,,,,,,,,,,,,,,,,,,,,,,,,,,,,,,,,,,,,,,,,,,,,,,,,,,,,,,,,,,,,,,,,,,,,,,,,,,,,,,,,,,,
,,,,,,,,,,,,,,,,,6M9zLYMB,igen,igen,2020-07-09_17h42.31.373,terkepesz_online,2020.1.3,Win32,60,,,,,,,,,,,,,,,f,1.13852,,,,,,,,LLP,1,stimuli/fractals/92c.jpg,-225,225,6000,,,,0,32,32,32,1,117,2,1,stimuli/fractals/92c.jpg,stimuli/fractals/92a.jpg,stimuli/fractals/92b.jpg,-225,225,-225,75,-75,225,375,-75,,,,,,,,,,,,,,,,,,,,,,,,,,,,,,,,,,,,,,,,,,,,,,,,,,,,,,,,,,,,,,,,,,,,,,,,,,,,,,,,,,,,,,,,
,,,,,,,,,,,,,,,,,6M9zLYMB,igen,igen,2020-07-09_17h42.31.373,terkepesz_online,2020.1.3,Win32,60,,,,,,,,,,,,,,,j,0.860335,,,,,,,,LLP,1,stimuli/fractals/81b.jpg,-375,-225,2000,,,,0,33,33,33,1,118,2,3,stimuli/fractals/81b.jpg,stimuli/fractals/81a.jpg,stimuli/fractals/81c.jpg,-375,-225,-375,-75,-225,-225,375,-225,,,,,,,,,,,,,,,,,,,,,,,,,,,,,,,,,,,,,,,,,,,,,,,,,,,,,,,,,,,,,,,,,,,,,,,,,,,,,,,,,,,,,,,,
,,,,,,,,,,,,,,,,,6M9zLYMB,igen,igen,2020-07-09_17h42.31.373,terkepesz_online,2020.1.3,Win32,60,,,,,,,,,,,,,,,j,0.776585,,,,,,,,LLP,2,stimuli/fractals/92c.jpg,-225,75,500,,,,0,34,34,34,1,119,2,0,stimuli/fractals/92c.jpg,stimuli/fractals/92a.jpg,stimuli/fractals/92b.jpg,-225,225,-225,75,-75,225,375,-75,,,,,,,,,,,,,,,,,,,,,,,,,,,,,,,,,,,,,,,,,,,,,,,,,,,,,,,,,,,,,,,,,,,,,,,,,,,,,,,,,,,,,,,,
,,,,,,,,,,,,,,,,,6M9zLYMB,igen,igen,2020-07-09_17h42.31.373,terkepesz_online,2020.1.3,Win32,60,,,,,,,,,,,,,,,f,0.688605,,,,,,,,ERP,2,stimuli/fractals/101a.jpg,-375,75,1000,,,,0,35,35,35,1,120,2,0,stimuli/fractals/101a.jpg,stimuli/fractals/101c.jpg,stimuli/fractals/101b.jpg,-375,75,-375,225,-375,-75,375,75,,,,,,,,,,,,,,,,,,,,,,,,,,,,,,,,,,,,,,,,,,,,,,,,,,,,,,,,,,,,,,,,,,,,,,,,,,,,,,,,,,,,,,,,
,,,,,,,,,,,,,,,,,6M9zLYMB,igen,igen,2020-07-09_17h42.31.373,terkepesz_online,2020.1.3,Win32,60,,,,,,,,,,,,,,,j,0.987995,,,,,,,,LLP,1,stimuli/fractals/15c.jpg,225,-75,3000,,,,0,36,36,36,1,121,2,2,stimuli/fractals/15c.jpg,stimuli/fractals/15b.jpg,stimuli/fractals/15a.jpg,225,-75,75,-75,375,-75,-375,225,,,,,,,,,,,,,,,,,,,,,,,,,,,,,,,,,,,,,,,,,,,,,,,,,,,,,,,,,,,,,,,,,,,,,,,,,,,,,,,,,,,,,,,,
,,,,,,,,,,,,,,,,,6M9zLYMB,igen,igen,2020-07-09_17h42.31.373,terkepesz_online,2020.1.3,Win32,60,,,,,,,,,,,,,,,j,1.819115,,,,,,,,LLP,2,stimuli/fractals/81b.jpg,-375,-75,1000,,,,0,37,37,37,1,122,2,0,stimuli/fractals/81b.jpg,stimuli/fractals/81a.jpg,stimuli/fractals/81c.jpg,-375,-225,-375,-75,-225,-225,375,-225,,,,,,,,,,,,,,,,,,,,,,,,,,,,,,,,,,,,,,,,,,,,,,,,,,,,,,,,,,,,,,,,,,,,,,,,,,,,,,,,,,,,,,,,
,,,,,,,,,,,,,,,,,6M9zLYMB,igen,igen,2020-07-09_17h42.31.373,terkepesz_online,2020.1.3,Win32,60,,,,,,,,,,,,,,,j,1.434555,,,,,,,,ERP,1,stimuli/fractals/131a.jpg,-375,225,2000,,,,0,38,38,38,1,123,2,1,stimuli/fractals/131a.jpg,stimuli/fractals/131c.jpg,stimuli/fractals/131b.jpg,-375,225,-375,75,-225,225,-75,-225,,,,,,,,,,,,,,,,,,,,,,,,,,,,,,,,,,,,,,,,,,,,,,,,,,,,,,,,,,,,,,,,,,,,,,,,,,,,,,,,,,,,,,,,
,,,,,,,,,,,,,,,,,6M9zLYMB,igen,igen,2020-07-09_17h42.31.373,terkepesz_online,2020.1.3,Win32,60,,,,,,,,,,,,,,,j,1.050995,,,,,,,,LLP,2,stimuli/fractals/15c.jpg,75,-75,2000,,,,0,39,39,39,1,124,2,0,stimuli/fractals/15c.jpg,stimuli/fractals/15b.jpg,stimuli/fractals/15a.jpg,225,-75,75,-75,375,-75,-375,225,,,,,,,,,,,,,,,,,,,,,,,,,,,,,,,,,,,,,,,,,,,,,,,,,,,,,,,,,,,,,,,,,,,,,,,,,,,,,,,,,,,,,,,,
,,,,,,,,,,,,,,,,,6M9zLYMB,igen,igen,2020-07-09_17h42.31.373,terkepesz_online,2020.1.3,Win32,60,,,,,,,,,,,,,,,j,1.34229,,,,,,,,ERP,2,stimuli/fractals/131a.jpg,-375,225,1000,,,,0,40,40,40,1,125,2,0,stimuli/fractals/131a.jpg,stimuli/fractals/131c.jpg,stimuli/fractals/131b.jpg,-375,225,-375,75,-225,225,-75,-225,,,,,,,,,,,,,,,,,,,,,,,,,,,,,,,,,,,,,,,,,,,,,,,,,,,,,,,,,,,,,,,,,,,,,,,,,,,,,,,,,,,,,,,,
,,,,,,,,,,,,,,,,,6M9zLYMB,igen,igen,2020-07-09_17h42.31.373,terkepesz_online,2020.1.3,Win32,60,,,,,,,,,,,,,,,j,0.73898,,,,,,,,BL,0,stimuli/fractals/35a.jpg,225,-75,1000,,,,0,41,41,41,1,126,2,0,stimuli/fractals/35a.jpg,stimuli/fractals/35c.jpg,stimuli/fractals/35b.jpg,225,-75,225,75,75,-75,-375,-225,,,,,,,,,,,,,,,,,,,,,,,,,,,,,,,,,,,,,,,,,,,,,,,,,,,,,,,,,,,,,,,,,,,,,,,,,,,,,,,,,,,,,,,,
,,,,,,,,,,,,,,,,,6M9zLYMB,igen,igen,2020-07-09_17h42.31.373,terkepesz_online,2020.1.3,Win32,60,,,,,,,,,,,,,,,j,1.201255,,,,,,,,ERP,1,stimuli/fractals/113c.jpg,375,75,500,,,,0,42,42,42,1,127,2,1,stimuli/fractals/113c.jpg,stimuli/fractals/113b.jpg,stimuli/fractals/113a.jpg,375,75,375,225,375,-75,-375,-225,,,,,,,,,,,,,,,,,,,,,,,,,,,,,,,,,,,,,,,,,,,,,,,,,,,,,,,,,,,,,,,,,,,,,,,,,,,,,,,,,,,,,,,,
,,,,,,,,,,,,,,,,,6M9zLYMB,igen,igen,2020-07-09_17h42.31.373,terkepesz_online,2020.1.3,Win32,60,,,,,,,,,,,,,,,f,1.37181,,,,,,,,OLP,1,stimuli/fractals/118a.jpg,-375,-225,3000,,,,0,43,43,43,1,128,2,3,stimuli/fractals/118a.jpg,stimuli/fractals/118b.jpg,stimuli/fractals/118c.jpg,-375,-225,-225,-225,-375,-75,225,225,,,,,,,,,,,,,,,,,,,,,,,,,,,,,,,,,,,,,,,,,,,,,,,,,,,,,,,,,,,,,,,,,,,,,,,,,,,,,,,,,,,,,,,,
,,,,,,,,,,,,,,,,,6M9zLYMB,igen,igen,2020-07-09_17h42.31.373,terkepesz_online,2020.1.3,Win32,60,,,,,,,,,,,,,,,j,0.48812,,,,,,,,ERP,2,stimuli/fractals/113c.jpg,375,75,2000,,,,0,44,44,44,1,129,2,0,stimuli/fractals/113c.jpg,stimuli/fractals/113b.jpg,stimuli/fractals/113a.jpg,375,75,375,225,375,-75,-375,-225,,,,,,,,,,,,,,,,,,,,,,,,,,,,,,,,,,,,,,,,,,,,,,,,,,,,,,,,,,,,,,,,,,,,,,,,,,,,,,,,,,,,,,,,
,,,,,,,,,,,,,,,,,6M9zLYMB,igen,igen,2020-07-09_17h42.31.373,terkepesz_online,2020.1.3,Win32,60,,,,,,,,,,,,,,,f,0.768655,,,,,,,,LLP,1,stimuli/fractals/30c.jpg,225,-75,2000,,,,0,45,45,45,1,130,2,2,stimuli/fractals/30c.jpg,stimuli/fractals/30a.jpg,stimuli/fractals/30b.jpg,225,-75,225,75,75,-75,-225,225,,,,,,,,,,,,,,,,,,,,,,,,,,,,,,,,,,,,,,,,,,,,,,,,,,,,,,,,,,,,,,,,,,,,,,,,,,,,,,,,,,,,,,,,
,,,,,,,,,,,,,,,,,6M9zLYMB,igen,igen,2020-07-09_17h42.31.373,terkepesz_online,2020.1.3,Win32,60,,,,,,,,,,,,,,,j,1.613055,,,,,,,,LLP,1,stimuli/fractals/67b.jpg,225,75,1000,,,,0,46,46,46,1,131,2,3,stimuli/fractals/67b.jpg,stimuli/fractals/67c.jpg,stimuli/fractals/67a.jpg,225,75,75,75,375,75,-375,-75,,,,,,,,,,,,,,,,,,,,,,,,,,,,,,,,,,,,,,,,,,,,,,,,,,,,,,,,,,,,,,,,,,,,,,,,,,,,,,,,,,,,,,,,
,,,,,,,,,,,,,,,,,6M9zLYMB,igen,igen,2020-07-09_17h42.31.373,terkepesz_online,2020.1.3,Win32,60,,,,,,,,,,,,,,,j,1.43328,,,,,,,,OLP,2,stimuli/fractals/118b.jpg,-375,-225,1000,,,,0,47,47,47,1,132,2,0,stimuli/fractals/118a.jpg,stimuli/fractals/118b.jpg,stimuli/fractals/118c.jpg,-375,-225,-225,-225,-375,-75,225,225,,,,,,,,,,,,,,,,,,,,,,,,,,,,,,,,,,,,,,,,,,,,,,,,,,,,,,,,,,,,,,,,,,,,,,,,,,,,,,,,,,,,,,,,
,,,,,,,,,,,,,,,,,6M9zLYMB,igen,igen,2020-07-09_17h42.31.373,terkepesz_online,2020.1.3,Win32,60,,,,,,,,,,,,,,,f,1.60308,,,,,,,,LLP,2,stimuli/fractals/30c.jpg,225,75,1000,,,,0,48,48,48,1,133,2,0,stimuli/fractals/30c.jpg,stimuli/fractals/30a.jpg,stimuli/fractals/30b.jpg,225,-75,225,75,75,-75,-225,225,,,,,,,,,,,,,,,,,,,,,,,,,,,,,,,,,,,,,,,,,,,,,,,,,,,,,,,,,,,,,,,,,,,,,,,,,,,,,,,,,,,,,,,,
,,,,,,,,,,,,,,,,,6M9zLYMB,igen,igen,2020-07-09_17h42.31.373,terkepesz_online,2020.1.3,Win32,60,,,,,,,,,,,,,,,f,2.096085,,,,,,,,ERP,1,stimuli/fractals/82a.jpg,-225,-225,3000,,,,0,49,49,49,1,134,2,1,stimuli/fractals/82a.jpg,stimuli/fractals/82c.jpg,stimuli/fractals/82b.jpg,-225,-225,-225,-75,-75,-225,225,75,,,,,,,,,,,,,,,,,,,,,,,,,,,,,,,,,,,,,,,,,,,,,,,,,,,,,,,,,,,,,,,,,,,,,,,,,,,,,,,,,,,,,,,,
,,,,,,,,,,,,,,,,,6M9zLYMB,igen,igen,2020-07-09_17h42.31.373,terkepesz_online,2020.1.3,Win32,60,,,,,,,,,,,,,,,j,1.259855,,,,,,,,LLP,2,stimuli/fractals/67b.jpg,75,75,1000,,,,0,50,50,50,1,135,2,0,stimuli/fractals/67b.jpg,stimuli/fractals/67c.jpg,stimuli/fractals/67a.jpg,225,75,75,75,375,75,-375,-75,,,,,,,,,,,,,,,,,,,,,,,,,,,,,,,,,,,,,,,,,,,,,,,,,,,,,,,,,,,,,,,,,,,,,,,,,,,,,,,,,,,,,,,,
,,,,,,,,,,,,,,,,,6M9zLYMB,igen,igen,2020-07-09_17h42.31.373,terkepesz_online,2020.1.3,Win32,60,,,,,,,,,,,,,,,f,1.40532,,,,,,,,ERP,2,stimuli/fractals/82a.jpg,-225,-225,3000,,,,0,51,51,51,1,136,2,0,stimuli/fractals/82a.jpg,stimuli/fractals/82c.jpg,stimuli/fractals/82b.jpg,-225,-225,-225,-75,-75,-225,225,75,,,,,,,,,,,,,,,,,,,,,,,,,,,,,,,,,,,,,,,,,,,,,,,,,,,,,,,,,,,,,,,,,,,,,,,,,,,,,,,,,,,,,,,,
,,,,,,,,,,,,,,,,,6M9zLYMB,igen,igen,2020-07-09_17h42.31.373,terkepesz_online,2020.1.3,Win32,60,,,,,,,,,,,,,,,f,1.37515,,,,,,,,ERP,1,stimuli/fractals/78b.jpg,-225,225,2000,,,,0,52,52,52,1,137,2,5,stimuli/fractals/78b.jpg,stimuli/fractals/78c.jpg,stimuli/fractals/78a.jpg,-225,225,-75,225,-225,75,375,75,,,,,,,,,,,,,,,,,,,,,,,,,,,,,,,,,,,,,,,,,,,,,,,,,,,,,,,,,,,,,,,,,,,,,,,,,,,,,,,,,,,,,,,,
,,,,,,,,,,,,,,,,,6M9zLYMB,igen,igen,2020-07-09_17h42.31.373,terkepesz_online,2020.1.3,Win32,60,,,,,,,,,,,,,,,j,1.216615,,,,,,,,LLP,1,stimuli/fractals/79b.jpg,75,-225,1000,,,,0,53,53,53,1,138,2,5,stimuli/fractals/79b.jpg,stimuli/fractals/79a.jpg,stimuli/fractals/79c.jpg,75,-225,225,-225,-75,-225,-375,225,,,,,,,,,,,,,,,,,,,,,,,,,,,,,,,,,,,,,,,,,,,,,,,,,,,,,,,,,,,,,,,,,,,,,,,,,,,,,,,,,,,,,,,,
,,,,,,,,,,,,,,,,,6M9zLYMB,igen,igen,2020-07-09_17h42.31.373,terkepesz_online,2020.1.3,Win32,60,,,,,,,,,,,,,,,f,2.24629,,,,,,,,LLP,1,stimuli/fractals/110a.jpg,225,225,2000,,,,0,54,54,54,1,139,2,2,stimuli/fractals/110a.jpg,stimuli/fractals/110c.jpg,stimuli/fractals/110b.jpg,225,225,225,75,75,225,-225,-75,,,,,,,,,,,,,,,,,,,,,,,,,,,,,,,,,,,,,,,,,,,,,,,,,,,,,,,,,,,,,,,,,,,,,,,,,,,,,,,,,,,,,,,,
,,,,,,,,,,,,,,,,,6M9zLYMB,igen,igen,2020-07-09_17h42.31.373,terkepesz_online,2020.1.3,Win32,60,,,,,,,,,,,,,,,f,2.88712,,,,,,,,OLP,1,stimuli/fractals/77a.jpg,-225,-225,4000,,,,0,55,55,55,1,140,2,4,stimuli/fractals/77a.jpg,stimuli/fractals/77c.jpg,stimuli/fractals/77b.jpg,-225,-225,-225,-75,-375,-225,225,225,,,,,,,,,,,,,,,,,,,,,,,,,,,,,,,,,,,,,,,,,,,,,,,,,,,,,,,,,,,,,,,,,,,,,,,,,,,,,,,,,,,,,,,,
,,,,,,,,,,,,,,,,,6M9zLYMB,igen,igen,2020-07-09_17h42.31.373,terkepesz_online,2020.1.3,Win32,60,,,,,,,,,,,,,,,f,2.05566,,,,,,,,LLP,1,stimuli/fractals/132b.jpg,75,225,1000,,,,0,56,56,56,1,141,2,4,stimuli/fractals/132b.jpg,stimuli/fractals/132c.jpg,stimuli/fractals/132a.jpg,75,225,225,225,-75,225,-375,-225,,,,,,,,,,,,,,,,,,,,,,,,,,,,,,,,,,,,,,,,,,,,,,,,,,,,,,,,,,,,,,,,,,,,,,,,,,,,,,,,,,,,,,,,
,,,,,,,,,,,,,,,,,6M9zLYMB,igen,igen,2020-07-09_17h42.31.373,terkepesz_online,2020.1.3,Win32,60,,,,,,,,,,,,,,,j,1.141945,,,,,,,,LLP,2,stimuli/fractals/110a.jpg,225,75,3000,,,,0,57,57,57,1,142,2,0,stimuli/fractals/110a.jpg,stimuli/fractals/110c.jpg,stimuli/fractals/110b.jpg,225,225,225,75,75,225,-225,-75,,,,,,,,,,,,,,,,,,,,,,,,,,,,,,,,,,,,,,,,,,,,,,,,,,,,,,,,,,,,,,,,,,,,,,,,,,,,,,,,,,,,,,,,
,,,,,,,,,,,,,,,,,6M9zLYMB,igen,igen,2020-07-09_17h42.31.373,terkepesz_online,2020.1.3,Win32,60,,,,,,,,,,,,,,,f,2.08594,,,,,,,,ERP,2,stimuli/fractals/78b.jpg,-225,225,2000,,,,0,58,58,58,1,143,2,0,stimuli/fractals/78b.jpg,stimuli/fractals/78c.jpg,stimuli/fractals/78a.jpg,-225,225,-75,225,-225,75,375,75,,,,,,,,,,,,,,,,,,,,,,,,,,,,,,,,,,,,,,,,,,,,,,,,,,,,,,,,,,,,,,,,,,,,,,,,,,,,,,,,,,,,,,,,
,,,,,,,,,,,,,,,,,6M9zLYMB,igen,igen,2020-07-09_17h42.31.373,terkepesz_online,2020.1.3,Win32,60,,,,,,,,,,,,,,,j,1.40124,,,,,,,,LLP,2,stimuli/fractals/79b.jpg,225,-225,2000,,,,0,59,59,59,1,144,2,0,stimuli/fractals/79b.jpg,stimuli/fractals/79a.jpg,stimuli/fractals/79c.jpg,75,-225,225,-225,-75,-225,-375,225,,,,,,,,,,,,,,,,,,,,,,,,,,,,,,,,,,,,,,,,,,,,,,,,,,,,,,,,,,,,,,,,,,,,,,,,,,,,,,,,,,,,,,,,
,,,,,,,,,,,,,,,,,6M9zLYMB,igen,igen,2020-07-09_17h42.31.373,terkepesz_online,2020.1.3,Win32,60,,,,,,,,,,,,,,,j,0.96651,,,,,,,,OLP,2,stimuli/fractals/77c.jpg,-225,-225,3000,,,,0,60,60,60,1,145,2,0,stimuli/fractals/77a.jpg,stimuli/fractals/77c.jpg,stimuli/fractals/77b.jpg,-225,-225,-225,-75,-375,-225,225,225,,,,,,,,,,,,,,,,,,,,,,,,,,,,,,,,,,,,,,,,,,,,,,,,,,,,,,,,,,,,,,,,,,,,,,,,,,,,,,,,,,,,,,,,
,,,,,,,,,,,,,,,,,6M9zLYMB,igen,igen,2020-07-09_17h42.31.373,terkepesz_online,2020.1.3,Win32,60,,,,,,,,,,,,,,,f,1.323995,,,,,,,,LLP,2,stimuli/fractals/132b.jpg,225,225,500,,,,0,61,61,61,1,146,2,0,stimuli/fractals/132b.jpg,stimuli/fractals/132c.jpg,stimuli/fractals/132a.jpg,75,225,225,225,-75,225,-375,-225,,,,,,,,,,,,,,,,,,,,,,,,,,,,,,,,,,,,,,,,,,,,,,,,,,,,,,,,,,,,,,,,,,,,,,,,,,,,,,,,,,,,,,,,
,,,,,,,,,,,,,,,,,6M9zLYMB,igen,igen,2020-07-09_17h42.31.373,terkepesz_online,2020.1.3,Win32,60,,,,,,,,,,,,,,,j,1.034465,,,,,,,,BL,0,stimuli/fractals/35a.jpg,225,-75,3000,,,,0,62,62,62,1,147,2,0,stimuli/fractals/35a.jpg,stimuli/fractals/35c.jpg,stimuli/fractals/35b.jpg,225,-75,225,75,75,-75,-375,-225,,,,,,,,,,,,,,,,,,,,,,,,,,,,,,,,,,,,,,,,,,,,,,,,,,,,,,,,,,,,,,,,,,,,,,,,,,,,,,,,,,,,,,,,
,,,,,,,,,,,,,,,,,6M9zLYMB,igen,igen,2020-07-09_17h42.31.373,terkepesz_online,2020.1.3,Win32,60,,,,,,,,,,,,,,,f,1.20262,,,,,,,,LLP,1,stimuli/fractals/39a.jpg,-375,-225,1000,,,,0,63,63,63,1,148,2,3,stimuli/fractals/39a.jpg,stimuli/fractals/39c.jpg,stimuli/fractals/39b.jpg,-375,-225,-375,-75,-225,-225,375,-75,,,,,,,,,,,,,,,,,,,,,,,,,,,,,,,,,,,,,,,,,,,,,,,,,,,,,,,,,,,,,,,,,,,,,,,,,,,,,,,,,,,,,,,,
,,,,,,,,,,,,,,,,,6M9zLYMB,igen,igen,2020-07-09_17h42.31.373,terkepesz_online,2020.1.3,Win32,60,,,,,,,,,,,,,,,j,1.91919,,,,,,,,OLP,1,stimuli/fractals/134b.jpg,-75,75,500,,,,0,64,64,64,1,149,2,1,stimuli/fractals/134b.jpg,stimuli/fractals/134a.jpg,stimuli/fractals/134c.jpg,-75,75,-75,225,-75,-75,375,-225,,,,,,,,,,,,,,,,,,,,,,,,,,,,,,,,,,,,,,,,,,,,,,,,,,,,,,,,,,,,,,,,,,,,,,,,,,,,,,,,,,,,,,,,
,,,,,,,,,,,,,,,,,6M9zLYMB,igen,igen,2020-07-09_17h42.31.373,terkepesz_online,2020.1.3,Win32,60,,,,,,,,,,,,,,,f,1.40988,,,,,,,,ERP,1,stimuli/fractals/100b.jpg,-75,225,1000,,,,0,65,65,65,1,150,2,2,stimuli/fractals/100b.jpg,stimuli/fractals/100a.jpg,stimuli/fractals/100c.jpg,-75,225,-225,225,75,225,375,-225,,,,,,,,,,,,,,,,,,,,,,,,,,,,,,,,,,,,,,,,,,,,,,,,,,,,,,,,,,,,,,,,,,,,,,,,,,,,,,,,,,,,,,,,
,,,,,,,,,,,,,,,,,6M9zLYMB,igen,igen,2020-07-09_17h42.31.373,terkepesz_online,2020.1.3,Win32,60,,,,,,,,,,,,,,,j,1.152455,,,,,,,,OLP,2,stimuli/fractals/134a.jpg,-75,75,2000,,,,0,66,66,66,1,151,2,0,stimuli/fractals/134b.jpg,stimuli/fractals/134a.jpg,stimuli/fractals/134c.jpg,-75,75,-75,225,-75,-75,375,-225,,,,,,,,,,,,,,,,,,,,,,,,,,,,,,,,,,,,,,,,,,,,,,,,,,,,,,,,,,,,,,,,,,,,,,,,,,,,,,,,,,,,,,,,
,,,,,,,,,,,,,,,,,6M9zLYMB,igen,igen,2020-07-09_17h42.31.373,terkepesz_online,2020.1.3,Win32,60,,,,,,,,,,,,,,,j,1.652995,,,,,,,,LLP,2,stimuli/fractals/39a.jpg,-375,-75,1000,,,,0,67,67,67,1,152,2,0,stimuli/fractals/39a.jpg,stimuli/fractals/39c.jpg,stimuli/fractals/39b.jpg,-375,-225,-375,-75,-225,-225,375,-75,,,,,,,,,,,,,,,,,,,,,,,,,,,,,,,,,,,,,,,,,,,,,,,,,,,,,,,,,,,,,,,,,,,,,,,,,,,,,,,,,,,,,,,,
,,,,,,,,,,,,,,,,,6M9zLYMB,igen,igen,2020-07-09_17h42.31.373,terkepesz_online,2020.1.3,Win32,60,,,,,,,,,,,,,,,f,2.43499,,,,,,,,ERP,2,stimuli/fractals/100b.jpg,-75,225,4000,,,,0,68,68,68,1,153,2,0,stimuli/fractals/100b.jpg,stimuli/fractals/100a.jpg,stimuli/fractals/100c.jpg,-75,225,-225,225,75,225,375,-225,,,,,,,,,,,,,,,,,,,,,,,,,,,,,,,,,,,,,,,,,,,,,,,,,,,,,,,,,,,,,,,,,,,,,,,,,,,,,,,,,,,,,,,,
,,,,,,,,,,,,,,,,,6M9zLYMB,igen,igen,2020-07-09_17h42.31.373,terkepesz_online,2020.1.3,Win32,60,,,,,,,,,,,,,,,f,1.27594,,,,,,,,LLP,1,stimuli/fractals/64c.jpg,375,225,1000,,,,0,69,69,69,1,154,2,3,stimuli/fractals/64c.jpg,stimuli/fractals/64a.jpg,stimuli/fractals/64b.jpg,375,225,375,75,225,225,-225,-225,,,,,,,,,,,,,,,,,,,,,,,,,,,,,,,,,,,,,,,,,,,,,,,,,,,,,,,,,,,,,,,,,,,,,,,,,,,,,,,,,,,,,,,,
,,,,,,,,,,,,,,,,,6M9zLYMB,igen,igen,2020-07-09_17h42.31.373,terkepesz_online,2020.1.3,Win32,60,,,,,,,,,,,,,,,f,1.732335,,,,,,,,ERP,1,stimuli/fractals/71b.jpg,-75,225,3000,,,,0,70,70,70,1,155,2,1,stimuli/fractals/71b.jpg,stimuli/fractals/71c.jpg,stimuli/fractals/71a.jpg,-75,225,75,225,-75,75,375,-75,,,,,,,,,,,,,,,,,,,,,,,,,,,,,,,,,,,,,,,,,,,,,,,,,,,,,,,,,,,,,,,,,,,,,,,,,,,,,,,,,,,,,,,,
,,,,,,,,,,,,,,,,,6M9zLYMB,igen,igen,2020-07-09_17h42.31.373,terkepesz_online,2020.1.3,Win32,60,,,,,,,,,,,,,,,j,1.387525,,,,,,,,LLP,1,stimuli/fractals/5b.jpg,225,225,6000,,,,0,71,71,71,1,156,2,5,stimuli/fractals/5b.jpg,stimuli/fractals/5a.jpg,stimuli/fractals/5c.jpg,225,225,375,225,75,225,-375,-225,,,,,,,,,,,,,,,,,,,,,,,,,,,,,,,,,,,,,,,,,,,,,,,,,,,,,,,,,,,,,,,,,,,,,,,,,,,,,,,,,,,,,,,,
,,,,,,,,,,,,,,,,,6M9zLYMB,igen,igen,2020-07-09_17h42.31.373,terkepesz_online,2020.1.3,Win32,60,,,,,,,,,,,,,,,f,1.477215,,,,,,,,ERP,2,stimuli/fractals/71b.jpg,-75,225,4000,,,,0,72,72,72,1,157,2,0,stimuli/fractals/71b.jpg,stimuli/fractals/71c.jpg,stimuli/fractals/71a.jpg,-75,225,75,225,-75,75,375,-75,,,,,,,,,,,,,,,,,,,,,,,,,,,,,,,,,,,,,,,,,,,,,,,,,,,,,,,,,,,,,,,,,,,,,,,,,,,,,,,,,,,,,,,,
,,,,,,,,,,,,,,,,,6M9zLYMB,igen,igen,2020-07-09_17h42.31.373,terkepesz_online,2020.1.3,Win32,60,,,,,,,,,,,,,,,f,2.22217,,,,,,,,LLP,2,stimuli/fractals/64c.jpg,375,75,6000,,,,0,73,73,73,1,158,2,0,stimuli/fractals/64c.jpg,stimuli/fractals/64a.jpg,stimuli/fractals/64b.jpg,375,225,375,75,225,225,-225,-225,,,,,,,,,,,,,,,,,,,,,,,,,,,,,,,,,,,,,,,,,,,,,,,,,,,,,,,,,,,,,,,,,,,,,,,,,,,,,,,,,,,,,,,,
,,,,,,,,,,,,,,,,,6M9zLYMB,igen,igen,2020-07-09_17h42.31.373,terkepesz_online,2020.1.3,Win32,60,,,,,,,,,,,,,,,j,1.700865,,,,,,,,ERP,1,stimuli/fractals/130a.jpg,-375,-225,1000,,,,0,74,74,74,1,159,2,4,stimuli/fractals/130a.jpg,stimuli/fractals/130c.jpg,stimuli/fractals/130b.jpg,-375,-225,-225,-225,-375,-75,75,75,,,,,,,,,,,,,,,,,,,,,,,,,,,,,,,,,,,,,,,,,,,,,,,,,,,,,,,,,,,,,,,,,,,,,,,,,,,,,,,,,,,,,,,,
,,,,,,,,,,,,,,,,,6M9zLYMB,igen,igen,2020-07-09_17h42.31.373,terkepesz_online,2020.1.3,Win32,60,,,,,,,,,,,,,,,f,1.50158,,,,,,,,OLP,1,stimuli/fractals/85a.jpg,375,-225,500,,,,0,75,75,75,1,160,2,4,stimuli/fractals/85a.jpg,stimuli/fractals/85b.jpg,stimuli/fractals/85c.jpg,375,-225,375,-75,225,-225,-375,225,,,,,,,,,,,,,,,,,,,,,,,,,,,,,,,,,,,,,,,,,,,,,,,,,,,,,,,,,,,,,,,,,,,,,,,,,,,,,,,,,,,,,,,,
,,,,,,,,,,,,,,,,,6M9zLYMB,igen,igen,2020-07-09_17h42.31.373,terkepesz_online,2020.1.3,Win32,60,,,,,,,,,,,,,,,f,1.995465,,,,,,,,ERP,1,stimuli/fractals/117b.jpg,225,75,1000,,,,0,76,76,76,1,161,2,5,stimuli/fractals/117b.jpg,stimuli/fractals/117c.jpg,stimuli/fractals/117a.jpg,225,75,225,225,375,75,-375,-225,,,,,,,,,,,,,,,,,,,,,,,,,,,,,,,,,,,,,,,,,,,,,,,,,,,,,,,,,,,,,,,,,,,,,,,,,,,,,,,,,,,,,,,,
,,,,,,,,,,,,,,,,,6M9zLYMB,igen,igen,2020-07-09_17h42.31.373,terkepesz_online,2020.1.3,Win32,60,,,,,,,,,,,,,,,j,1.29982,,,,,,,,LLP,2,stimuli/fractals/5b.jpg,375,225,3000,,,,0,77,77,77,1,162,2,0,stimuli/fractals/5b.jpg,stimuli/fractals/5a.jpg,stimuli/fractals/5c.jpg,225,225,375,225,75,225,-375,-225,,,,,,,,,,,,,,,,,,,,,,,,,,,,,,,,,,,,,,,,,,,,,,,,,,,,,,,,,,,,,,,,,,,,,,,,,,,,,,,,,,,,,,,,
,,,,,,,,,,,,,,,,,6M9zLYMB,igen,igen,2020-07-09_17h42.31.373,terkepesz_online,2020.1.3,Win32,60,,,,,,,,,,,,,,,f,1.85926,,,,,,,,OLP,1,stimuli/fractals/107b.jpg,375,-225,2000,,,,0,78,78,78,1,163,2,2,stimuli/fractals/107b.jpg,stimuli/fractals/107c.jpg,stimuli/fractals/107a.jpg,375,-225,225,-225,375,-75,-225,75,,,,,,,,,,,,,,,,,,,,,,,,,,,,,,,,,,,,,,,,,,,,,,,,,,,,,,,,,,,,,,,,,,,,,,,,,,,,,,,,,,,,,,,,
,,,,,,,,,,,,,,,,,6M9zLYMB,igen,igen,2020-07-09_17h42.31.373,terkepesz_online,2020.1.3,Win32,60,,,,,,,,,,,,,,,j,1.05303,,,,,,,,ERP,2,stimuli/fractals/130a.jpg,-375,-225,500,,,,0,79,79,79,1,164,2,0,stimuli/fractals/130a.jpg,stimuli/fractals/130c.jpg,stimuli/fractals/130b.jpg,-375,-225,-225,-225,-375,-75,75,75,,,,,,,,,,,,,,,,,,,,,,,,,,,,,,,,,,,,,,,,,,,,,,,,,,,,,,,,,,,,,,,,,,,,,,,,,,,,,,,,,,,,,,,,
,,,,,,,,,,,,,,,,,6M9zLYMB,igen,igen,2020-07-09_17h42.31.373,terkepesz_online,2020.1.3,Win32,60,,,,,,,,,,,,,,,j,1.402505,,,,,,,,OLP,2,stimuli/fractals/85b.jpg,375,-225,1000,,,,0,80,80,80,1,165,2,0,stimuli/fractals/85a.jpg,stimuli/fractals/85b.jpg,stimuli/fractals/85c.jpg,375,-225,375,-75,225,-225,-375,225,,,,,,,,,,,,,,,,,,,,,,,,,,,,,,,,,,,,,,,,,,,,,,,,,,,,,,,,,,,,,,,,,,,,,,,,,,,,,,,,,,,,,,,,
,,,,,,,,,,,,,,,,,6M9zLYMB,igen,igen,2020-07-09_17h42.31.373,terkepesz_online,2020.1.3,Win32,60,,,,,,,,,,,,,,,f,1.465025,,,,,,,,OLP,2,stimuli/fractals/107c.jpg,375,-225,5000,,,,0,81,81,81,1,166,2,0,stimuli/fractals/107b.jpg,stimuli/fractals/107c.jpg,stimuli/fractals/107a.jpg,375,-225,225,-225,375,-75,-225,75,,,,,,,,,,,,,,,,,,,,,,,,,,,,,,,,,,,,,,,,,,,,,,,,,,,,,,,,,,,,,,,,,,,,,,,,,,,,,,,,,,,,,,,,
,,,,,,,,,,,,,,,,,6M9zLYMB,igen,igen,2020-07-09_17h42.31.373,terkepesz_online,2020.1.3,Win32,60,,,,,,,,,,,,,,,f,1.51795,,,,,,,,ERP,2,stimuli/fractals/117b.jpg,225,75,3000,,,,0,82,82,82,1,167,2,0,stimuli/fractals/117b.jpg,stimuli/fractals/117c.jpg,stimuli/fractals/117a.jpg,225,75,225,225,375,75,-375,-225,,,,,,,,,,,,,,,,,,,,,,,,,,,,,,,,,,,,,,,,,,,,,,,,,,,,,,,,,,,,,,,,,,,,,,,,,,,,,,,,,,,,,,,,
,,,,,,,,,,,,,,,,,6M9zLYMB,igen,igen,2020-07-09_17h42.31.373,terkepesz_online,2020.1.3,Win32,60,,,,,,,,,,,,,,,j,0.97711,,,,,,,,BL,0,stimuli/fractals/35a.jpg,225,-75,3000,,,,0,83,83,83,1,168,2,0,stimuli/fractals/35a.jpg,stimuli/fractals/35c.jpg,stimuli/fractals/35b.jpg,225,-75,225,75,75,-75,-375,-225,,,,,,,,,,,,,,,,,,,,,,,,,,,,,,,,,,,,,,,,,,,,,,,,,,,,,,,,,,,,,,,,,,,,,,,,,,,,,,,,,,,,,,,,
,,k,1,8.19436,,,,,,,"Mit gondol, ebben a körben milyen arányban tudott figyelni a képek helyére? Kérjük, válaszoljon őszintén. Válasza a vizsgálat bejefezésével járó jutalom (kredit, ajándékutalvány) értékét nem befolyásolja.",D: 0-24%    F: 25-49%    J: 50-74%    K: 75-100%,k,Köszönjük!,"Kevesebb, mint 75%-ban tudott a képek helyszínére figyelni.","Kérjük, próbáljon meg a továbbiakban figyelni a képek helyszínére. ",6M9zLYMB,igen,igen,2020-07-09_17h42.31.373,terkepesz_online,2020.1.3,Win32,60,,,,,,,,,,,,,,,,,,,,,,,,,,,,,,,,,,,,,,,,,,,,,,,,,,,,,,0,0,0,1,1,,,,,,,,,,,,,,,,,,,,,,,,,,,,,,,,,,,,,,,,,,,,,,,,,,,,,,,,,,,,,,,,,,,,,,,,,,,,,,,,,
,,k,1,16.593435,,,,,,,"Mit gondol, ebben a körben milyen arányban tudott figyelni a képekre? Kérjük, válaszoljon őszintén. Válasza a vizsgálat bejefezésével járó jutalom (kredit, ajándékutalvány) értékét nem befolyásolja.",D: 0-24%    F: 25-49%    J: 50-74%    K: 75-100%,k,Köszönjük!,"Kevesebb, mint 75%-ban tudott a képekre figyelni.","Kérjük, próbáljon meg a továbbiakban figyelni a képekre. ",6M9zLYMB,igen,igen,2020-07-09_17h42.31.373,terkepesz_online,2020.1.3,Win32,60,,,,,,,,,,,,,,,,,,,,,,,,,,,,,,,,,,,,,,,,,,,,,,,,,,,,,,0,1,1,0,1,,,,,,,,,,,,,,,,,,,,,,,,,,,,,,,,,,,,,,,,,,,,,,,,,,,,,,,,,,,,,,,,,,,,,,,,,,,,,,,,,
,,,,,,,,,,,,,,,,,6M9zLYMB,igen,igen,2020-07-09_17h42.31.373,terkepesz_online,2020.1.3,Win32,60,,,,,,,,,,,,,,,,,,,,,,,,,,,,,,,,,,,,,,,,,,,,,,,,,,,,,,,,,,,right,88.387985,1,0,1,0,1,,,,,,,,,,,,,,,,,,,,,,,,,,,,,,,,,,,,,,,,,,,,,,,,,,,,,,,,,,,,,,,,,,,,,,,,,,
,,,,,,,,,,,,,,,,,6M9zLYMB,igen,igen,2020-07-09_17h42.31.373,terkepesz_online,2020.1.3,Win32,60,,,,,,,,,,,,,,,j,2.06418,,,,,,,,LLP,1,stimuli/fractals/141c.jpg,-225,-225,1000,,,,0,0,0,0,1,169,3,1,stimuli/fractals/141c.jpg,stimuli/fractals/141b.jpg,stimuli/fractals/141a.jpg,-225,-225,-225,-75,-75,-225,225,225,,,,,,,,,,,,,,,,,,,,,,,,,,,,,,,,,,,,,,,,,,,,,,,,,,,,,,,,,,,,,,,,,,,,,,,,,,,,,,,,,,,,,,,,
,,,,,,,,,,,,,,,,,6M9zLYMB,igen,igen,2020-07-09_17h42.31.373,terkepesz_online,2020.1.3,Win32,60,,,,,,,,,,,,,,,j,1.55313,,,,,,,,LLP,1,stimuli/fractals/87a.jpg,-225,75,4000,,,,0,1,1,1,1,170,3,4,stimuli/fractals/87a.jpg,stimuli/fractals/87c.jpg,stimuli/fractals/87b.jpg,-225,75,-225,-75,-375,75,375,-225,,,,,,,,,,,,,,,,,,,,,,,,,,,,,,,,,,,,,,,,,,,,,,,,,,,,,,,,,,,,,,,,,,,,,,,,,,,,,,,,,,,,,,,,
,,,,,,,,,,,,,,,,,6M9zLYMB,igen,igen,2020-07-09_17h42.31.373,terkepesz_online,2020.1.3,Win32,60,,,,,,,,,,,,,,,f,1.486355,,,,,,,,LLP,2,stimuli/fractals/141c.jpg,-225,-75,5000,,,,0,2,2,2,1,171,3,0,stimuli/fractals/141c.jpg,stimuli/fractals/141b.jpg,stimuli/fractals/141a.jpg,-225,-225,-225,-75,-75,-225,225,225,,,,,,,,,,,,,,,,,,,,,,,,,,,,,,,,,,,,,,,,,,,,,,,,,,,,,,,,,,,,,,,,,,,,,,,,,,,,,,,,,,,,,,,,
,,,,,,,,,,,,,,,,,6M9zLYMB,igen,igen,2020-07-09_17h42.31.373,terkepesz_online,2020.1.3,Win32,60,,,,,,,,,,,,,,,j,0.656455,,,,,,,,LLP,1,stimuli/fractals/48a.jpg,375,-75,3000,,,,0,3,3,3,1,172,3,3,stimuli/fractals/48a.jpg,stimuli/fractals/48c.jpg,stimuli/fractals/48b.jpg,375,-75,225,-75,375,75,-375,225,,,,,,,,,,,,,,,,,,,,,,,,,,,,,,,,,,,,,,,,,,,,,,,,,,,,,,,,,,,,,,,,,,,,,,,,,,,,,,,,,,,,,,,,
,,,,,,,,,,,,,,,,,6M9zLYMB,igen,igen,2020-07-09_17h42.31.373,terkepesz_online,2020.1.3,Win32,60,,,,,,,,,,,,,,,f,1.28824,,,,,,,,LLP,1,stimuli/fractals/28c.jpg,375,225,1000,,,,0,4,4,4,1,173,3,3,stimuli/fractals/28c.jpg,stimuli/fractals/28b.jpg,stimuli/fractals/28a.jpg,375,225,375,75,225,225,-375,-225,,,,,,,,,,,,,,,,,,,,,,,,,,,,,,,,,,,,,,,,,,,,,,,,,,,,,,,,,,,,,,,,,,,,,,,,,,,,,,,,,,,,,,,,
,,,,,,,,,,,,,,,,,6M9zLYMB,igen,igen,2020-07-09_17h42.31.373,terkepesz_online,2020.1.3,Win32,60,,,,,,,,,,,,,,,j,0.728375,,,,,,,,ERP,1,stimuli/fractals/54c.jpg,375,-75,4000,,,,0,5,5,5,1,174,3,4,stimuli/fractals/54c.jpg,stimuli/fractals/54a.jpg,stimuli/fractals/54b.jpg,375,-75,225,-75,375,75,-225,225,,,,,,,,,,,,,,,,,,,,,,,,,,,,,,,,,,,,,,,,,,,,,,,,,,,,,,,,,,,,,,,,,,,,,,,,,,,,,,,,,,,,,,,,
,,,,,,,,,,,,,,,,,6M9zLYMB,igen,igen,2020-07-09_17h42.31.373,terkepesz_online,2020.1.3,Win32,60,,,,,,,,,,,,,,,j,0.9333,,,,,,,,LLP,2,stimuli/fractals/87a.jpg,-225,-75,2000,,,,0,6,6,6,1,175,3,0,stimuli/fractals/87a.jpg,stimuli/fractals/87c.jpg,stimuli/fractals/87b.jpg,-225,75,-225,-75,-375,75,375,-225,,,,,,,,,,,,,,,,,,,,,,,,,,,,,,,,,,,,,,,,,,,,,,,,,,,,,,,,,,,,,,,,,,,,,,,,,,,,,,,,,,,,,,,,
,,,,,,,,,,,,,,,,,6M9zLYMB,igen,igen,2020-07-09_17h42.31.373,terkepesz_online,2020.1.3,Win32,60,,,,,,,,,,,,,,,j,1.07938,,,,,,,,LLP,2,stimuli/fractals/48a.jpg,225,-75,500,,,,0,7,7,7,1,176,3,0,stimuli/fractals/48a.jpg,stimuli/fractals/48c.jpg,stimuli/fractals/48b.jpg,375,-75,225,-75,375,75,-375,225,,,,,,,,,,,,,,,,,,,,,,,,,,,,,,,,,,,,,,,,,,,,,,,,,,,,,,,,,,,,,,,,,,,,,,,,,,,,,,,,,,,,,,,,
,,,,,,,,,,,,,,,,,6M9zLYMB,igen,igen,2020-07-09_17h42.31.373,terkepesz_online,2020.1.3,Win32,60,,,,,,,,,,,,,,,f,1.158615,,,,,,,,LLP,2,stimuli/fractals/28c.jpg,375,75,1000,,,,0,8,8,8,1,177,3,0,stimuli/fractals/28c.jpg,stimuli/fractals/28b.jpg,stimuli/fractals/28a.jpg,375,225,375,75,225,225,-375,-225,,,,,,,,,,,,,,,,,,,,,,,,,,,,,,,,,,,,,,,,,,,,,,,,,,,,,,,,,,,,,,,,,,,,,,,,,,,,,,,,,,,,,,,,
,,,,,,,,,,,,,,,,,6M9zLYMB,igen,igen,2020-07-09_17h42.31.373,terkepesz_online,2020.1.3,Win32,60,,,,,,,,,,,,,,,j,1.555705,,,,,,,,LLP,1,stimuli/fractals/137b.jpg,-225,75,2000,,,,0,9,9,9,1,178,3,5,stimuli/fractals/137b.jpg,stimuli/fractals/137a.jpg,stimuli/fractals/137c.jpg,-225,75,-225,-75,-375,75,225,-225,,,,,,,,,,,,,,,,,,,,,,,,,,,,,,,,,,,,,,,,,,,,,,,,,,,,,,,,,,,,,,,,,,,,,,,,,,,,,,,,,,,,,,,,
,,,,,,,,,,,,,,,,,6M9zLYMB,igen,igen,2020-07-09_17h42.31.373,terkepesz_online,2020.1.3,Win32,60,,,,,,,,,,,,,,,j,1.23435,,,,,,,,ERP,2,stimuli/fractals/54c.jpg,375,-75,8000,,,,0,10,10,10,1,179,3,0,stimuli/fractals/54c.jpg,stimuli/fractals/54a.jpg,stimuli/fractals/54b.jpg,375,-75,225,-75,375,75,-225,225,,,,,,,,,,,,,,,,,,,,,,,,,,,,,,,,,,,,,,,,,,,,,,,,,,,,,,,,,,,,,,,,,,,,,,,,,,,,,,,,,,,,,,,,
,,,,,,,,,,,,,,,,,6M9zLYMB,igen,igen,2020-07-09_17h42.31.373,terkepesz_online,2020.1.3,Win32,60,,,,,,,,,,,,,,,f,1.424515,,,,,,,,LLP,1,stimuli/fractals/17a.jpg,225,225,4000,,,,0,11,11,11,1,180,3,1,stimuli/fractals/17a.jpg,stimuli/fractals/17c.jpg,stimuli/fractals/17b.jpg,225,225,375,225,225,75,-225,-75,,,,,,,,,,,,,,,,,,,,,,,,,,,,,,,,,,,,,,,,,,,,,,,,,,,,,,,,,,,,,,,,,,,,,,,,,,,,,,,,,,,,,,,,
,,,,,,,,,,,,,,,,,6M9zLYMB,igen,igen,2020-07-09_17h42.31.373,terkepesz_online,2020.1.3,Win32,60,,,,,,,,,,,,,,,j,2.520785,,,,,,,,LLP,1,stimuli/fractals/60c.jpg,-225,-75,7000,,,,0,12,12,12,1,181,3,5,stimuli/fractals/60c.jpg,stimuli/fractals/60a.jpg,stimuli/fractals/60b.jpg,-225,-75,-225,75,-75,-75,375,75,,,,,,,,,,,,,,,,,,,,,,,,,,,,,,,,,,,,,,,,,,,,,,,,,,,,,,,,,,,,,,,,,,,,,,,,,,,,,,,,,,,,,,,,
,,,,,,,,,,,,,,,,,6M9zLYMB,igen,igen,2020-07-09_17h42.31.373,terkepesz_online,2020.1.3,Win32,60,,,,,,,,,,,,,,,f,1.37259,,,,,,,,LLP,2,stimuli/fractals/17a.jpg,375,225,3000,,,,0,13,13,13,1,182,3,0,stimuli/fractals/17a.jpg,stimuli/fractals/17c.jpg,stimuli/fractals/17b.jpg,225,225,375,225,225,75,-225,-75,,,,,,,,,,,,,,,,,,,,,,,,,,,,,,,,,,,,,,,,,,,,,,,,,,,,,,,,,,,,,,,,,,,,,,,,,,,,,,,,,,,,,,,,
,,,,,,,,,,,,,,,,,6M9zLYMB,igen,igen,2020-07-09_17h42.31.373,terkepesz_online,2020.1.3,Win32,60,,,,,,,,,,,,,,,j,1.06246,,,,,,,,OLP,1,stimuli/fractals/106b.jpg,-225,-225,6000,,,,0,14,14,14,1,183,3,2,stimuli/fractals/106b.jpg,stimuli/fractals/106a.jpg,stimuli/fractals/106c.jpg,-225,-225,-75,-225,-375,-225,225,225,,,,,,,,,,,,,,,,,,,,,,,,,,,,,,,,,,,,,,,,,,,,,,,,,,,,,,,,,,,,,,,,,,,,,,,,,,,,,,,,,,,,,,,,
,,,,,,,,,,,,,,,,,6M9zLYMB,igen,igen,2020-07-09_17h42.31.373,terkepesz_online,2020.1.3,Win32,60,,,,,,,,,,,,,,,j,1.1992,,,,,,,,LLP,2,stimuli/fractals/137b.jpg,-225,-75,1000,,,,0,15,15,15,1,184,3,0,stimuli/fractals/137b.jpg,stimuli/fractals/137a.jpg,stimuli/fractals/137c.jpg,-225,75,-225,-75,-375,75,225,-225,,,,,,,,,,,,,,,,,,,,,,,,,,,,,,,,,,,,,,,,,,,,,,,,,,,,,,,,,,,,,,,,,,,,,,,,,,,,,,,,,,,,,,,,
,,,,,,,,,,,,,,,,,6M9zLYMB,igen,igen,2020-07-09_17h42.31.373,terkepesz_online,2020.1.3,Win32,60,,,,,,,,,,,,,,,j,1.369525,,,,,,,,LLP,1,stimuli/fractals/62a.jpg,-225,-225,6000,,,,0,16,16,16,1,185,3,2,stimuli/fractals/62a.jpg,stimuli/fractals/62c.jpg,stimuli/fractals/62b.jpg,-225,-225,-75,-225,-375,-225,375,75,,,,,,,,,,,,,,,,,,,,,,,,,,,,,,,,,,,,,,,,,,,,,,,,,,,,,,,,,,,,,,,,,,,,,,,,,,,,,,,,,,,,,,,,
,,,,,,,,,,,,,,,,,6M9zLYMB,igen,igen,2020-07-09_17h42.31.373,terkepesz_online,2020.1.3,Win32,60,,,,,,,,,,,,,,,j,1.12058,,,,,,,,OLP,2,stimuli/fractals/106a.jpg,-225,-225,500,,,,0,17,17,17,1,186,3,0,stimuli/fractals/106b.jpg,stimuli/fractals/106a.jpg,stimuli/fractals/106c.jpg,-225,-225,-75,-225,-375,-225,225,225,,,,,,,,,,,,,,,,,,,,,,,,,,,,,,,,,,,,,,,,,,,,,,,,,,,,,,,,,,,,,,,,,,,,,,,,,,,,,,,,,,,,,,,,
,,,,,,,,,,,,,,,,,6M9zLYMB,igen,igen,2020-07-09_17h42.31.373,terkepesz_online,2020.1.3,Win32,60,,,,,,,,,,,,,,,j,1.200415,,,,,,,,LLP,2,stimuli/fractals/60c.jpg,-225,75,1000,,,,0,18,18,18,1,187,3,0,stimuli/fractals/60c.jpg,stimuli/fractals/60a.jpg,stimuli/fractals/60b.jpg,-225,-75,-225,75,-75,-75,375,75,,,,,,,,,,,,,,,,,,,,,,,,,,,,,,,,,,,,,,,,,,,,,,,,,,,,,,,,,,,,,,,,,,,,,,,,,,,,,,,,,,,,,,,,
,,,,,,,,,,,,,,,,,6M9zLYMB,igen,igen,2020-07-09_17h42.31.373,terkepesz_online,2020.1.3,Win32,60,,,,,,,,,,,,,,,j,1.17984,,,,,,,,LLP,2,stimuli/fractals/62a.jpg,-75,-225,5000,,,,0,19,19,19,1,188,3,0,stimuli/fractals/62a.jpg,stimuli/fractals/62c.jpg,stimuli/fractals/62b.jpg,-225,-225,-75,-225,-375,-225,375,75,,,,,,,,,,,,,,,,,,,,,,,,,,,,,,,,,,,,,,,,,,,,,,,,,,,,,,,,,,,,,,,,,,,,,,,,,,,,,,,,,,,,,,,,
,,,,,,,,,,,,,,,,,6M9zLYMB,igen,igen,2020-07-09_17h42.31.373,terkepesz_online,2020.1.3,Win32,60,,,,,,,,,,,,,,,j,0.982185,,,,,,,,BL,0,stimuli/fractals/35a.jpg,225,-75,5000,,,,0,20,20,20,1,189,3,0,stimuli/fractals/35a.jpg,stimuli/fractals/35c.jpg,stimuli/fractals/35b.jpg,225,-75,225,75,75,-75,-375,-225,,,,,,,,,,,,,,,,,,,,,,,,,,,,,,,,,,,,,,,,,,,,,,,,,,,,,,,,,,,,,,,,,,,,,,,,,,,,,,,,,,,,,,,,
,,,,,,,,,,,,,,,,,6M9zLYMB,igen,igen,2020-07-09_17h42.31.373,terkepesz_online,2020.1.3,Win32,60,,,,,,,,,,,,,,,j,1.075855,,,,,,,,OLP,1,stimuli/fractals/135a.jpg,75,225,500,,,,0,21,21,21,1,190,3,2,stimuli/fractals/135a.jpg,stimuli/fractals/135c.jpg,stimuli/fractals/135b.jpg,75,225,-75,225,225,225,-375,-225,,,,,,,,,,,,,,,,,,,,,,,,,,,,,,,,,,,,,,,,,,,,,,,,,,,,,,,,,,,,,,,,,,,,,,,,,,,,,,,,,,,,,,,,
,,,,,,,,,,,,,,,,,6M9zLYMB,igen,igen,2020-07-09_17h42.31.373,terkepesz_online,2020.1.3,Win32,60,,,,,,,,,,,,,,,j,1.18594,,,,,,,,ERP,1,stimuli/fractals/133a.jpg,-375,-75,1000,,,,0,22,22,22,1,191,3,5,stimuli/fractals/133a.jpg,stimuli/fractals/133b.jpg,stimuli/fractals/133c.jpg,-375,-75,-375,-225,-225,-75,375,225,,,,,,,,,,,,,,,,,,,,,,,,,,,,,,,,,,,,,,,,,,,,,,,,,,,,,,,,,,,,,,,,,,,,,,,,,,,,,,,,,,,,,,,,
,,,,,,,,,,,,,,,,,6M9zLYMB,igen,igen,2020-07-09_17h42.31.373,terkepesz_online,2020.1.3,Win32,60,,,,,,,,,,,,,,,f,1.985445,,,,,,,,LLP,1,stimuli/fractals/115a.jpg,75,-75,1000,,,,0,23,23,23,1,192,3,5,stimuli/fractals/115a.jpg,stimuli/fractals/115b.jpg,stimuli/fractals/115c.jpg,75,-75,-75,-75,75,-225,-375,225,,,,,,,,,,,,,,,,,,,,,,,,,,,,,,,,,,,,,,,,,,,,,,,,,,,,,,,,,,,,,,,,,,,,,,,,,,,,,,,,,,,,,,,,
,,,,,,,,,,,,,,,,,6M9zLYMB,igen,igen,2020-07-09_17h42.31.373,terkepesz_online,2020.1.3,Win32,60,,,,,,,,,,,,,,,j,1.08452,,,,,,,,OLP,2,stimuli/fractals/135c.jpg,75,225,1000,,,,0,24,24,24,1,193,3,0,stimuli/fractals/135a.jpg,stimuli/fractals/135c.jpg,stimuli/fractals/135b.jpg,75,225,-75,225,225,225,-375,-225,,,,,,,,,,,,,,,,,,,,,,,,,,,,,,,,,,,,,,,,,,,,,,,,,,,,,,,,,,,,,,,,,,,,,,,,,,,,,,,,,,,,,,,,
,,,,,,,,,,,,,,,,,6M9zLYMB,igen,igen,2020-07-09_17h42.31.373,terkepesz_online,2020.1.3,Win32,60,,,,,,,,,,,,,,,f,1.25975,,,,,,,,OLP,1,stimuli/fractals/105b.jpg,-225,-75,2000,,,,0,25,25,25,1,194,3,1,stimuli/fractals/105b.jpg,stimuli/fractals/105c.jpg,stimuli/fractals/105a.jpg,-225,-75,-225,75,-225,-225,375,-225,,,,,,,,,,,,,,,,,,,,,,,,,,,,,,,,,,,,,,,,,,,,,,,,,,,,,,,,,,,,,,,,,,,,,,,,,,,,,,,,,,,,,,,,
,,,,,,,,,,,,,,,,,6M9zLYMB,igen,igen,2020-07-09_17h42.31.373,terkepesz_online,2020.1.3,Win32,60,,,,,,,,,,,,,,,j,0.973015,,,,,,,,OLP,1,stimuli/fractals/19c.jpg,375,75,1000,,,,0,26,26,26,1,195,3,4,stimuli/fractals/19c.jpg,stimuli/fractals/19b.jpg,stimuli/fractals/19a.jpg,375,75,225,75,375,-75,-225,225,,,,,,,,,,,,,,,,,,,,,,,,,,,,,,,,,,,,,,,,,,,,,,,,,,,,,,,,,,,,,,,,,,,,,,,,,,,,,,,,,,,,,,,,
,,,,,,,,,,,,,,,,,6M9zLYMB,igen,igen,2020-07-09_17h42.31.373,terkepesz_online,2020.1.3,Win32,60,,,,,,,,,,,,,,,j,1.15597,,,,,,,,OLP,2,stimuli/fractals/105c.jpg,-225,-75,4000,,,,0,27,27,27,1,196,3,0,stimuli/fractals/105b.jpg,stimuli/fractals/105c.jpg,stimuli/fractals/105a.jpg,-225,-75,-225,75,-225,-225,375,-225,,,,,,,,,,,,,,,,,,,,,,,,,,,,,,,,,,,,,,,,,,,,,,,,,,,,,,,,,,,,,,,,,,,,,,,,,,,,,,,,,,,,,,,,
,,,,,,,,,,,,,,,,,6M9zLYMB,igen,igen,2020-07-09_17h42.31.373,terkepesz_online,2020.1.3,Win32,60,,,,,,,,,,,,,,,f,1.626195,,,,,,,,ERP,2,stimuli/fractals/133a.jpg,-375,-75,500,,,,0,28,28,28,1,197,3,0,stimuli/fractals/133a.jpg,stimuli/fractals/133b.jpg,stimuli/fractals/133c.jpg,-375,-75,-375,-225,-225,-75,375,225,,,,,,,,,,,,,,,,,,,,,,,,,,,,,,,,,,,,,,,,,,,,,,,,,,,,,,,,,,,,,,,,,,,,,,,,,,,,,,,,,,,,,,,,
,,,,,,,,,,,,,,,,,6M9zLYMB,igen,igen,2020-07-09_17h42.31.373,terkepesz_online,2020.1.3,Win32,60,,,,,,,,,,,,,,,f,1.42188,,,,,,,,LLP,2,stimuli/fractals/115a.jpg,-75,-75,2000,,,,0,29,29,29,1,198,3,0,stimuli/fractals/115a.jpg,stimuli/fractals/115b.jpg,stimuli/fractals/115c.jpg,75,-75,-75,-75,75,-225,-375,225,,,,,,,,,,,,,,,,,,,,,,,,,,,,,,,,,,,,,,,,,,,,,,,,,,,,,,,,,,,,,,,,,,,,,,,,,,,,,,,,,,,,,,,,
,,,,,,,,,,,,,,,,,6M9zLYMB,igen,igen,2020-07-09_17h42.31.373,terkepesz_online,2020.1.3,Win32,60,,,,,,,,,,,,,,,j,1.68708,,,,,,,,OLP,1,stimuli/fractals/116c.jpg,-375,225,2000,,,,0,30,30,30,1,199,3,2,stimuli/fractals/116c.jpg,stimuli/fractals/116b.jpg,stimuli/fractals/116a.jpg,-375,225,-225,225,-375,75,375,225,,,,,,,,,,,,,,,,,,,,,,,,,,,,,,,,,,,,,,,,,,,,,,,,,,,,,,,,,,,,,,,,,,,,,,,,,,,,,,,,,,,,,,,,
,,,,,,,,,,,,,,,,,6M9zLYMB,igen,igen,2020-07-09_17h42.31.373,terkepesz_online,2020.1.3,Win32,60,,,,,,,,,,,,,,,j,1.84511,,,,,,,,OLP,2,stimuli/fractals/19b.jpg,375,75,1000,,,,0,31,31,31,1,200,3,0,stimuli/fractals/19c.jpg,stimuli/fractals/19b.jpg,stimuli/fractals/19a.jpg,375,75,225,75,375,-75,-225,225,,,,,,,,,,,,,,,,,,,,,,,,,,,,,,,,,,,,,,,,,,,,,,,,,,,,,,,,,,,,,,,,,,,,,,,,,,,,,,,,,,,,,,,,
,,,,,,,,,,,,,,,,,6M9zLYMB,igen,igen,2020-07-09_17h42.31.373,terkepesz_online,2020.1.3,Win32,60,,,,,,,,,,,,,,,f,1.56846,,,,,,,,ERP,1,stimuli/fractals/74c.jpg,225,-75,4000,,,,0,32,32,32,1,201,3,3,stimuli/fractals/74c.jpg,stimuli/fractals/74a.jpg,stimuli/fractals/74b.jpg,225,-75,75,-75,225,-225,-375,-225,,,,,,,,,,,,,,,,,,,,,,,,,,,,,,,,,,,,,,,,,,,,,,,,,,,,,,,,,,,,,,,,,,,,,,,,,,,,,,,,,,,,,,,,
,,,,,,,,,,,,,,,,,6M9zLYMB,igen,igen,2020-07-09_17h42.31.373,terkepesz_online,2020.1.3,Win32,60,,,,,,,,,,,,,,,j,1.07446,,,,,,,,OLP,2,stimuli/fractals/116b.jpg,-375,225,2000,,,,0,33,33,33,1,202,3,0,stimuli/fractals/116c.jpg,stimuli/fractals/116b.jpg,stimuli/fractals/116a.jpg,-375,225,-225,225,-375,75,375,225,,,,,,,,,,,,,,,,,,,,,,,,,,,,,,,,,,,,,,,,,,,,,,,,,,,,,,,,,,,,,,,,,,,,,,,,,,,,,,,,,,,,,,,,
,,,,,,,,,,,,,,,,,6M9zLYMB,igen,igen,2020-07-09_17h42.31.373,terkepesz_online,2020.1.3,Win32,60,,,,,,,,,,,,,,,j,1.18975,,,,,,,,ERP,1,stimuli/fractals/91c.jpg,75,75,1000,,,,0,34,34,34,1,203,3,3,stimuli/fractals/91c.jpg,stimuli/fractals/91b.jpg,stimuli/fractals/91a.jpg,75,75,-75,75,225,75,-375,-225,,,,,,,,,,,,,,,,,,,,,,,,,,,,,,,,,,,,,,,,,,,,,,,,,,,,,,,,,,,,,,,,,,,,,,,,,,,,,,,,,,,,,,,,
,,,,,,,,,,,,,,,,,6M9zLYMB,igen,igen,2020-07-09_17h42.31.373,terkepesz_online,2020.1.3,Win32,60,,,,,,,,,,,,,,,f,1.320075,,,,,,,,OLP,1,stimuli/fractals/72c.jpg,75,-225,2000,,,,0,35,35,35,1,204,3,4,stimuli/fractals/72c.jpg,stimuli/fractals/72b.jpg,stimuli/fractals/72a.jpg,75,-225,75,-75,225,-225,375,225,,,,,,,,,,,,,,,,,,,,,,,,,,,,,,,,,,,,,,,,,,,,,,,,,,,,,,,,,,,,,,,,,,,,,,,,,,,,,,,,,,,,,,,,
,,,,,,,,,,,,,,,,,6M9zLYMB,igen,igen,2020-07-09_17h42.31.373,terkepesz_online,2020.1.3,Win32,60,,,,,,,,,,,,,,,j,1.13811,,,,,,,,ERP,2,stimuli/fractals/74c.jpg,225,-75,2000,,,,0,36,36,36,1,205,3,0,stimuli/fractals/74c.jpg,stimuli/fractals/74a.jpg,stimuli/fractals/74b.jpg,225,-75,75,-75,225,-225,-375,-225,,,,,,,,,,,,,,,,,,,,,,,,,,,,,,,,,,,,,,,,,,,,,,,,,,,,,,,,,,,,,,,,,,,,,,,,,,,,,,,,,,,,,,,,
,,,,,,,,,,,,,,,,,6M9zLYMB,igen,igen,2020-07-09_17h42.31.373,terkepesz_online,2020.1.3,Win32,60,,,,,,,,,,,,,,,j,1.313235,,,,,,,,LLP,1,stimuli/fractals/3c.jpg,-75,-225,7000,,,,0,37,37,37,1,206,3,1,stimuli/fractals/3c.jpg,stimuli/fractals/3b.jpg,stimuli/fractals/3a.jpg,-75,-225,-75,-75,-225,-225,375,225,,,,,,,,,,,,,,,,,,,,,,,,,,,,,,,,,,,,,,,,,,,,,,,,,,,,,,,,,,,,,,,,,,,,,,,,,,,,,,,,,,,,,,,,
,,,,,,,,,,,,,,,,,6M9zLYMB,igen,igen,2020-07-09_17h42.31.373,terkepesz_online,2020.1.3,Win32,60,,,,,,,,,,,,,,,f,1.357505,,,,,,,,ERP,2,stimuli/fractals/91c.jpg,75,75,6000,,,,0,38,38,38,1,207,3,0,stimuli/fractals/91c.jpg,stimuli/fractals/91b.jpg,stimuli/fractals/91a.jpg,75,75,-75,75,225,75,-375,-225,,,,,,,,,,,,,,,,,,,,,,,,,,,,,,,,,,,,,,,,,,,,,,,,,,,,,,,,,,,,,,,,,,,,,,,,,,,,,,,,,,,,,,,,
,,,,,,,,,,,,,,,,,6M9zLYMB,igen,igen,2020-07-09_17h42.31.373,terkepesz_online,2020.1.3,Win32,60,,,,,,,,,,,,,,,j,1.754605,,,,,,,,LLP,2,stimuli/fractals/3c.jpg,-75,-75,2000,,,,0,39,39,39,1,208,3,0,stimuli/fractals/3c.jpg,stimuli/fractals/3b.jpg,stimuli/fractals/3a.jpg,-75,-225,-75,-75,-225,-225,375,225,,,,,,,,,,,,,,,,,,,,,,,,,,,,,,,,,,,,,,,,,,,,,,,,,,,,,,,,,,,,,,,,,,,,,,,,,,,,,,,,,,,,,,,,
,,,,,,,,,,,,,,,,,6M9zLYMB,igen,igen,2020-07-09_17h42.31.373,terkepesz_online,2020.1.3,Win32,60,,,,,,,,,,,,,,,f,1.23506,,,,,,,,OLP,2,stimuli/fractals/72b.jpg,75,-225,6000,,,,0,40,40,40,1,209,3,0,stimuli/fractals/72c.jpg,stimuli/fractals/72b.jpg,stimuli/fractals/72a.jpg,75,-225,75,-75,225,-225,375,225,,,,,,,,,,,,,,,,,,,,,,,,,,,,,,,,,,,,,,,,,,,,,,,,,,,,,,,,,,,,,,,,,,,,,,,,,,,,,,,,,,,,,,,,
,,,,,,,,,,,,,,,,,6M9zLYMB,igen,igen,2020-07-09_17h42.31.373,terkepesz_online,2020.1.3,Win32,60,,,,,,,,,,,,,,,j,1.026145,,,,,,,,BL,0,stimuli/fractals/35a.jpg,225,-75,3000,,,,0,41,41,41,1,210,3,0,stimuli/fractals/35a.jpg,stimuli/fractals/35c.jpg,stimuli/fractals/35b.jpg,225,-75,225,75,75,-75,-375,-225,,,,,,,,,,,,,,,,,,,,,,,,,,,,,,,,,,,,,,,,,,,,,,,,,,,,,,,,,,,,,,,,,,,,,,,,,,,,,,,,,,,,,,,,
,,,,,,,,,,,,,,,,,6M9zLYMB,igen,igen,2020-07-09_17h42.31.373,terkepesz_online,2020.1.3,Win32,60,,,,,,,,,,,,,,,j,1.404885,,,,,,,,ERP,1,stimuli/fractals/10c.jpg,225,-225,1000,,,,0,42,42,42,1,211,3,2,stimuli/fractals/10c.jpg,stimuli/fractals/10b.jpg,stimuli/fractals/10a.jpg,225,-225,225,-75,375,-225,-375,-75,,,,,,,,,,,,,,,,,,,,,,,,,,,,,,,,,,,,,,,,,,,,,,,,,,,,,,,,,,,,,,,,,,,,,,,,,,,,,,,,,,,,,,,,
,,,,,,,,,,,,,,,,,6M9zLYMB,igen,igen,2020-07-09_17h42.31.373,terkepesz_online,2020.1.3,Win32,60,,,,,,,,,,,,,,,f,1.345765,,,,,,,,OLP,1,stimuli/fractals/1b.jpg,75,-225,2000,,,,0,43,43,43,1,212,3,2,stimuli/fractals/1b.jpg,stimuli/fractals/1c.jpg,stimuli/fractals/1a.jpg,75,-225,225,-225,-75,-225,-375,225,,,,,,,,,,,,,,,,,,,,,,,,,,,,,,,,,,,,,,,,,,,,,,,,,,,,,,,,,,,,,,,,,,,,,,,,,,,,,,,,,,,,,,,,
,,,,,,,,,,,,,,,,,6M9zLYMB,igen,igen,2020-07-09_17h42.31.373,terkepesz_online,2020.1.3,Win32,60,,,,,,,,,,,,,,,f,1.323865,,,,,,,,OLP,1,stimuli/fractals/40a.jpg,225,225,2000,,,,0,44,44,44,1,213,3,3,stimuli/fractals/40a.jpg,stimuli/fractals/40b.jpg,stimuli/fractals/40c.jpg,225,225,375,225,225,75,-375,-225,,,,,,,,,,,,,,,,,,,,,,,,,,,,,,,,,,,,,,,,,,,,,,,,,,,,,,,,,,,,,,,,,,,,,,,,,,,,,,,,,,,,,,,,
,,,,,,,,,,,,,,,,,6M9zLYMB,igen,igen,2020-07-09_17h42.31.373,terkepesz_online,2020.1.3,Win32,60,,,,,,,,,,,,,,,j,0.97151,,,,,,,,ERP,2,stimuli/fractals/10c.jpg,225,-225,1000,,,,0,45,45,45,1,214,3,0,stimuli/fractals/10c.jpg,stimuli/fractals/10b.jpg,stimuli/fractals/10a.jpg,225,-225,225,-75,375,-225,-375,-75,,,,,,,,,,,,,,,,,,,,,,,,,,,,,,,,,,,,,,,,,,,,,,,,,,,,,,,,,,,,,,,,,,,,,,,,,,,,,,,,,,,,,,,,
,,,,,,,,,,,,,,,,,6M9zLYMB,igen,igen,2020-07-09_17h42.31.373,terkepesz_online,2020.1.3,Win32,60,,,,,,,,,,,,,,,f,1.52953,,,,,,,,OLP,2,stimuli/fractals/1c.jpg,75,-225,1000,,,,0,46,46,46,1,215,3,0,stimuli/fractals/1b.jpg,stimuli/fractals/1c.jpg,stimuli/fractals/1a.jpg,75,-225,225,-225,-75,-225,-375,225,,,,,,,,,,,,,,,,,,,,,,,,,,,,,,,,,,,,,,,,,,,,,,,,,,,,,,,,,,,,,,,,,,,,,,,,,,,,,,,,,,,,,,,,
,,,,,,,,,,,,,,,,,6M9zLYMB,igen,igen,2020-07-09_17h42.31.373,terkepesz_online,2020.1.3,Win32,60,,,,,,,,,,,,,,,j,1.50882,,,,,,,,ERP,1,stimuli/fractals/143a.jpg,225,-225,5000,,,,0,47,47,47,1,216,3,3,stimuli/fractals/143a.jpg,stimuli/fractals/143c.jpg,stimuli/fractals/143b.jpg,225,-225,75,-225,375,-225,-375,-75,,,,,,,,,,,,,,,,,,,,,,,,,,,,,,,,,,,,,,,,,,,,,,,,,,,,,,,,,,,,,,,,,,,,,,,,,,,,,,,,,,,,,,,,
,,,,,,,,,,,,,,,,,6M9zLYMB,igen,igen,2020-07-09_17h42.31.373,terkepesz_online,2020.1.3,Win32,60,,,,,,,,,,,,,,,j,1.15627,,,,,,,,OLP,2,stimuli/fractals/40b.jpg,225,225,500,,,,0,48,48,48,1,217,3,0,stimuli/fractals/40a.jpg,stimuli/fractals/40b.jpg,stimuli/fractals/40c.jpg,225,225,375,225,225,75,-375,-225,,,,,,,,,,,,,,,,,,,,,,,,,,,,,,,,,,,,,,,,,,,,,,,,,,,,,,,,,,,,,,,,,,,,,,,,,,,,,,,,,,,,,,,,
,,,,,,,,,,,,,,,,,6M9zLYMB,igen,igen,2020-07-09_17h42.31.373,terkepesz_online,2020.1.3,Win32,60,,,,,,,,,,,,,,,j,2.285795,,,,,,,,ERP,1,stimuli/fractals/11a.jpg,-225,225,1000,,,,0,49,49,49,1,218,3,5,stimuli/fractals/11a.jpg,stimuli/fractals/11b.jpg,stimuli/fractals/11c.jpg,-225,225,-375,225,-75,225,375,75,,,,,,,,,,,,,,,,,,,,,,,,,,,,,,,,,,,,,,,,,,,,,,,,,,,,,,,,,,,,,,,,,,,,,,,,,,,,,,,,,,,,,,,,
,,,,,,,,,,,,,,,,,6M9zLYMB,igen,igen,2020-07-09_17h42.31.373,terkepesz_online,2020.1.3,Win32,60,,,,,,,,,,,,,,,f,1.305175,,,,,,,,OLP,1,stimuli/fractals/13a.jpg,75,-225,4000,,,,0,50,50,50,1,219,3,1,stimuli/fractals/13a.jpg,stimuli/fractals/13c.jpg,stimuli/fractals/13b.jpg,75,-225,-75,-225,75,-75,-375,225,,,,,,,,,,,,,,,,,,,,,,,,,,,,,,,,,,,,,,,,,,,,,,,,,,,,,,,,,,,,,,,,,,,,,,,,,,,,,,,,,,,,,,,,
,,,,,,,,,,,,,,,,,6M9zLYMB,igen,igen,2020-07-09_17h42.31.373,terkepesz_online,2020.1.3,Win32,60,,,,,,,,,,,,,,,j,1.49311,,,,,,,,ERP,2,stimuli/fractals/143a.jpg,225,-225,1000,,,,0,51,51,51,1,220,3,0,stimuli/fractals/143a.jpg,stimuli/fractals/143c.jpg,stimuli/fractals/143b.jpg,225,-225,75,-225,375,-225,-375,-75,,,,,,,,,,,,,,,,,,,,,,,,,,,,,,,,,,,,,,,,,,,,,,,,,,,,,,,,,,,,,,,,,,,,,,,,,,,,,,,,,,,,,,,,
