experiment_information_key.keys,experiment_information_key.rt,comprehension_key.keys,comprehension_key.corr,comprehension_key.rt,comprehension_continue_key.keys,comprehension_questions_1.thisRepN,comprehension_questions_1.thisTrialN,comprehension_questions_1.thisN,comprehension_questions_1.thisIndex,comprehension_questions_1.ran,Question,Answer,CorrectResponse,CorrectAnswer,IncorrectAnswer,InfoRepeated,Azonosító kód*,A vizsgálat feltételeibe beleegyezem. (igen/nem)*,Az adatkezelési feltételeket elfogadom. (igen/nem)*,date,expName,psychopyVersion,OS,frameRate,lab_key.keys,lab_key.rt,enc_instructions_1_key.keys,enc_instructions_1_key.rt,enc_instructions_2_key.keys,enc_instructions_2_key.rt,enc_instructions_3_key.keys,enc_instructions_3_key.rt,comprehension_questions_2.thisRepN,comprehension_questions_2.thisTrialN,comprehension_questions_2.thisN,comprehension_questions_2.thisIndex,comprehension_questions_2.ran,enc_fx_key.keys,enc_trial_key.keys,enc_practice_trials.thisRepN,enc_practice_trials.thisTrialN,enc_practice_trials.thisN,enc_practice_trials.thisIndex,enc_practice_trials.ran,Task,TrialType,StimType,Order,CurrentImage,CurrentX,CurrentY,Jitter,Section,enc_practice_trials.order
right,1.665115,f,1,1.704795,,0,0,0,0,1,Mennyi időt vesz igénybe a vizsgálat? Válaszát jelölje a megadott billentyűk egyikével. ,D:20-30 perc    F: 50-60 perc    J: 70-80 perc,f,A helyes válasz: 50-60 perc,A helyes válasz: 50-60 perc,"Kérjük, figyelmesen olvassa végig az alábbi instrukciókat!

A vizsgálathoz használjon asztali számítógépet vagy laptopot. A vizsgálat nem végezhető el mobil eszközön, például okostelefonon vagy táblagépen. A feladatok elvégzéséhez szüksége lesz működő billentyűzetre és stabil internet kapcsolatra. Az optimális eredmény elérése érdekében Google Chrome, Firefox vagy Safari böngésző használata javasolt. Kérjük, használja a teljes képernyő módot.
A kísérlet teljes körű, zavartalan figyelmet igényel. A vizsgálat két feladatból áll, és elvégzése 50-60 percet vesz igénybe. Bizonyosodjon meg róla, hogy elég időt tud szánni a vizsgálatra. Ügyeljen arra, hogy telefont, vagy más eszközöket közben ne használjon, és kerülje a másokkal való interakciót.

A vizsgálat két feladatból áll, melyek során absztrakt képeket kell kiválogatnia a megadott szempontok szerint. A feladatok alatt és a feladatok között is lesz lehetősége rövid pihenőt tartani. ",kjdfkjvbnf,igen,igen,2020-07-08_20h36.09.438,terkepesz_online,2020.1.3,MacIntel,60,,,,,,,,,,,,,,,,,,,,,,,,,,,,,,
,,j,1,2.94516,,0,1,1,1,1,"Megbizonyosodott róla, hogy biztosítottak a vizsgálat elvégzéséhez szükséges feltételek? Válaszát jelölje a megadott billentyűk egyikével. ","F: Nem, nincs lehetőségem nyugodt körülmények között elvégezni a feladatot.    J: Igen, körülményeim nyugodtak, az internet kapcsolat stabil, a feladatokra tudok szánni 60 percet.",j,Köszönjük!,"Bizonyosodjon meg róla, hogy elég időt tud a vizsgálatra szánni. ","Kérjük, figyelmesen olvassa végig az alábbi instrukciókat!

A vizsgálathoz használjon asztali számítógépet vagy laptopot. A vizsgálat nem végezhető el mobil eszközön, például okostelefonon vagy táblagépen. A feladatok elvégzéséhez szüksége lesz működő billentyűzetre és stabil internet kapcsolatra. Az optimális eredmény elérése érdekében Google Chrome, Firefox vagy Safari böngésző használata javasolt. Kérjük, használja a teljes képernyő módot.
A kísérlet teljes körű, zavartalan figyelmet igényel. A vizsgálat két feladatból áll, és elvégzése 50-60 percet vesz igénybe. Bizonyosodjon meg róla, hogy elég időt tud szánni a vizsgálatra. Ügyeljen arra, hogy telefont, vagy más eszközöket közben ne használjon, és kerülje a másokkal való interakciót.

A vizsgálat két feladatból áll, melyek során absztrakt képeket kell kiválogatnia a megadott szempontok szerint. A feladatok alatt és a feladatok között is lesz lehetősége rövid pihenőt tartani. ",kjdfkjvbnf,igen,igen,2020-07-08_20h36.09.438,terkepesz_online,2020.1.3,MacIntel,60,,,,,,,,,,,,,,,,,,,,,,,,,,,,,,
,,f,1,2.304995,,,,,,,"Mely billentyű jelzi azokat a képeket, amelyek nem maradhatnak a bemutatott helyen?",D billentyű    F billentyű   J billentyű    K billentyű,f,A helyes válasz: F billentyű,A helyes válasz: F billentyű,"Az első feladat nagyjából 25 percet vesz igénybe, közben két rövid szünettel. Ügyeljen, hogy ezek a szünetek ne legyenek 2 percnél hosszabbak. 

A 'J' billentyűvel jelölje azokat a képeket, amelyek maradhatnak a galériában, a bemutatott helyen.

Az 'F' billentyűvel jelölje a képeket, amelyek nem maradnak kiállítva a bemutatott helyen. ",kjdfkjvbnf,igen,igen,2020-07-08_20h36.09.438,terkepesz_online,2020.1.3,MacIntel,60,right,5.52864,right,0.79676,right,3.53294,right,0.86295,0,0,0,1,1,,,,,,,,,,,,,,,,,
,,j,1,0.635325,,,,,,,"Mely billentyű jelzi azokat a képeket, amelyek maradhatnak a galériában, a bemutatott helyen?",D billentyű    F billentyű   J billentyű    K billentyű,j,A helyes válasz: J billentyű.,A helyes válasz: J billentyű.,"Az első feladat nagyjából 25 percet vesz igénybe, közben két rövid szünettel. Ügyeljen, hogy ezek a szünetek ne legyenek 2 percnél hosszabbak. 

A 'J' billentyűvel jelölje azokat a képeket, amelyek maradhatnak a galériában, a bemutatott helyen.

Az 'F' billentyűvel jelölje a képeket, amelyek nem maradnak kiállítva a bemutatott helyen. ",kjdfkjvbnf,igen,igen,2020-07-08_20h36.09.438,terkepesz_online,2020.1.3,MacIntel,60,,,,,,,,,0,1,1,0,1,,,,,,,,,,,,,,,,,
,,,,,,,,,,,,,,,,,kjdfkjvbnf,igen,igen,2020-07-08_20h36.09.438,terkepesz_online,2020.1.3,MacIntel,60,,,,,,,,,,,,,,,,0,0,0,0,1,EncodingPractice,OBJ,LURE,1,stimuli/fractals/166a.jpg,-75,225,1500,Encoding,
,,,,,,,,,,,,,,,,,kjdfkjvbnf,igen,igen,2020-07-08_20h36.09.438,terkepesz_online,2020.1.3,MacIntel,60,,,,,,,,,,,,,,,,0,1,1,1,1,EncodingPractice,OBJ,TARGET,1,stimuli/fractals/167a.jpg,225,225,500,Encoding,
,,,,,,,,,,,,,,,,,kjdfkjvbnf,igen,igen,2020-07-08_20h36.09.438,terkepesz_online,2020.1.3,MacIntel,60,,,,,,,,,,,,,,,,1,0,9,8,1,EncodingPractice,LOC,TARGET,1,stimuli/fractals/166a.jpg,-75,225,1500,Encoding,8
