experiment_information_key.keys,experiment_information_key.rt,comprehension_key.keys,comprehension_key.corr,comprehension_key.rt,comprehension_continue_key.keys,comprehension_questions_1.thisRepN,comprehension_questions_1.thisTrialN,comprehension_questions_1.thisN,comprehension_questions_1.thisIndex,comprehension_questions_1.ran,Question,Answer,CorrectResponse,CorrectAnswer,IncorrectAnswer,InfoRepeated,Azonosító kód*,A vizsgálat feltételeibe beleegyezem. (igen/nem)*,Az adatkezelési feltételeket elfogadom. (igen/nem)*,date,expName,psychopyVersion,OS,frameRate,lab_key.keys,lab_key.rt,enc_instructions_1_key.keys,enc_instructions_1_key.rt,enc_instructions_2_key.keys,enc_instructions_2_key.rt,enc_instructions_3_key.keys,enc_instructions_3_key.rt,comprehension_questions_2.thisRepN,comprehension_questions_2.thisTrialN,comprehension_questions_2.thisN,comprehension_questions_2.thisIndex,comprehension_questions_2.ran,enc_fx_key.keys,enc_trial_key.keys,enc_practice_trials.thisRepN,enc_practice_trials.thisTrialN,enc_practice_trials.thisN,enc_practice_trials.thisIndex,enc_practice_trials.ran,Task,TrialType,StimType,Order,CurrentImage,CurrentX,CurrentY,Jitter,Section,enc_trial_key.rt,end_practice_key.keys,end_practice_key.rt,enc_trials.thisRepN,enc_trials.thisTrialN,enc_trials.thisN,enc_trials.thisIndex,enc_trials.ran,TrialIndex,ScannerRun,Delay,TripletMemberA,TripletMemberB,TripletMemberC,Xcoordinate,Ycoordinate,Xcoordinate_lure1,Ycoordinate_lure1,Xcoordinate_lure2,Ycoordinate_lure2,Xcoordinate_foil,Ycoordinate_foil,enc_fx_key.rt,comprehension_continue_key.rt,comprehension_enc_run.thisRepN,comprehension_enc_run.thisTrialN,comprehension_enc_run.thisN,comprehension_enc_run.thisIndex,comprehension_enc_run.ran,enc_run_end_key.keys,enc_run_end_key.rt,enc_runs.thisRepN,enc_runs.thisTrialN,enc_runs.thisN,enc_runs.thisIndex,enc_runs.ran,inter_task_break_key.keys,inter_task_break_key.rt,rec_instructions_1_key.keys,rec_instructions_1_key.rt,rec_instructions_2_key.keys,rec_instructions_2_key.rt,rec_instructions_3_key.keys,rec_instructions_3_key.rt,rec_instructions_4_key.keys,rec_instructions_4_key.rt,comprehension_questions_3.thisRepN,comprehension_questions_3.thisTrialN,comprehension_questions_3.thisN,comprehension_questions_3.thisIndex,comprehension_questions_3.ran,demo_key.keys,demo_key.rt,demo_trials.thisRepN,demo_trials.thisTrialN,demo_trials.thisN,demo_trials.thisIndex,demo_trials.ran,DemoImage,DemoX,DemoY,InPractice,DemoText,demo_end_key.keys,demo_end_key.rt,rec_fx_key.keys,rec_trial_key.keys,rec_trial_key.rt,rec_practice_trials.thisRepN,rec_practice_trials.thisTrialN,rec_practice_trials.thisN,rec_practice_trials.thisIndex,rec_practice_trials.ran,BlockNr,Filler,rec_practice_blocks.thisRepN,rec_practice_blocks.thisTrialN,rec_practice_blocks.thisN,rec_practice_blocks.thisIndex,rec_practice_blocks.ran,rec_trials.thisRepN,rec_trials.thisTrialN,rec_trials.thisN,rec_trials.thisIndex,rec_trials.ran,EncodingTrialIndex,EncodingStimType,EncodingImage,EncodingXcoordinate,EncodingYcoordinate,rec_blocks.thisRepN,rec_blocks.thisTrialN,rec_blocks.thisN,rec_blocks.thisIndex,rec_blocks.ran,rec_fx_key.rt,end_rec_run_key.keys,end_rec_run_key.rt,rec_runs.thisRepN,rec_runs.thisTrialN,rec_runs.thisN,rec_runs.thisIndex,rec_runs.ran,comprehension_end.thisRepN,comprehension_end.thisTrialN,comprehension_end.thisN,comprehension_end.thisIndex,comprehension_end.ran,end_experiment_key.keys,end_experiment_key.rt
right,39.786315,f,1,4.940325,,0,0,0,0,1,Mennyi időt vesz igénybe a vizsgálat? Válaszát jelölje a megadott billentyűk egyikével. ,D:20-30 perc    F: 50-60 perc    J: 70-80 perc,f,A helyes válasz: 50-60 perc,A helyes válasz: 50-60 perc,"Kérjük, figyelmesen olvassa végig az alábbi instrukciókat!

A vizsgálathoz használjon asztali számítógépet vagy laptopot. A vizsgálat nem végezhető el mobil eszközön, például okostelefonon vagy táblagépen. A feladatok elvégzéséhez szüksége lesz működő billentyűzetre és stabil internet kapcsolatra. Az optimális eredmény elérése érdekében Google Chrome, Firefox vagy Safari böngésző használata javasolt. Kérjük, használja a teljes képernyő módot.
A kísérlet teljes körű, zavartalan figyelmet igényel. A vizsgálat két feladatból áll, és elvégzése 50-60 percet vesz igénybe. Bizonyosodjon meg róla, hogy elég időt tud szánni a vizsgálatra. Ügyeljen arra, hogy telefont, vagy más eszközöket közben ne használjon, és kerülje a másokkal való interakciót.

A vizsgálat két feladatból áll, melyek során absztrakt képeket kell kiválogatnia a megadott szempontok szerint. A feladatok alatt és a feladatok között is lesz lehetősége rövid pihenőt tartani. ",jUXDHrfV,igen,igen,2020-07-10_11h51.39.253,terkepesz_online,2020.1.3,Win32,60,,,,,,,,,,,,,,,,,,,,,,,,,,,,,,,,,,,,,,,,,,,,,,,,,,,,,,,,,,,,,,,,,,,,,,,,,,,,,,,,,,,,,,,,,,,,,,,,,,,,,,,,,,,,,,,,,,,,,,,,,,,,,,,,,,,,,,,,,,,
,,j,1,7.07592,,0,1,1,1,1,"Megbizonyosodott róla, hogy biztosítottak a vizsgálat elvégzéséhez szükséges feltételek? Válaszát jelölje a megadott billentyűk egyikével. ","F: Nem, nincs lehetőségem nyugodt körülmények között elvégezni a feladatot.    J: Igen, körülményeim nyugodtak, az internet kapcsolat stabil, a feladatokra tudok szánni 60 percet.",j,Köszönjük!,"Bizonyosodjon meg róla, hogy elég időt tud a vizsgálatra szánni. ","Kérjük, figyelmesen olvassa végig az alábbi instrukciókat!

A vizsgálathoz használjon asztali számítógépet vagy laptopot. A vizsgálat nem végezhető el mobil eszközön, például okostelefonon vagy táblagépen. A feladatok elvégzéséhez szüksége lesz működő billentyűzetre és stabil internet kapcsolatra. Az optimális eredmény elérése érdekében Google Chrome, Firefox vagy Safari böngésző használata javasolt. Kérjük, használja a teljes képernyő módot.
A kísérlet teljes körű, zavartalan figyelmet igényel. A vizsgálat két feladatból áll, és elvégzése 50-60 percet vesz igénybe. Bizonyosodjon meg róla, hogy elég időt tud szánni a vizsgálatra. Ügyeljen arra, hogy telefont, vagy más eszközöket közben ne használjon, és kerülje a másokkal való interakciót.

A vizsgálat két feladatból áll, melyek során absztrakt képeket kell kiválogatnia a megadott szempontok szerint. A feladatok alatt és a feladatok között is lesz lehetősége rövid pihenőt tartani. ",jUXDHrfV,igen,igen,2020-07-10_11h51.39.253,terkepesz_online,2020.1.3,Win32,60,,,,,,,,,,,,,,,,,,,,,,,,,,,,,,,,,,,,,,,,,,,,,,,,,,,,,,,,,,,,,,,,,,,,,,,,,,,,,,,,,,,,,,,,,,,,,,,,,,,,,,,,,,,,,,,,,,,,,,,,,,,,,,,,,,,,,,,,,,,
,,f,1,3.054075,,,,,,,"Mely billentyű jelzi azokat a képeket, amelyek nem maradhatnak a bemutatott helyen?",D billentyű    F billentyű   J billentyű    K billentyű,f,A helyes válasz: F billentyű,A helyes válasz: F billentyű,"Az első feladat nagyjából 25 percet vesz igénybe, közben két rövid szünettel. Ügyeljen, hogy ezek a szünetek ne legyenek 2 percnél hosszabbak. 

A 'J' billentyűvel jelölje azokat a képeket, amelyek maradhatnak a galériában, a bemutatott helyen.

Az 'F' billentyűvel jelölje a képeket, amelyek nem maradnak kiállítva a bemutatott helyen. ",jUXDHrfV,igen,igen,2020-07-10_11h51.39.253,terkepesz_online,2020.1.3,Win32,60,right,61.74225,right,15.02976,right,35.08488,right,12.3869,0,0,0,1,1,,,,,,,,,,,,,,,,,,,,,,,,,,,,,,,,,,,,,,,,,,,,,,,,,,,,,,,,,,,,,,,,,,,,,,,,,,,,,,,,,,,,,,,,,,,,,,,,,,,,,,,,,,,,,,,,,,,,,,,,,,,,,,
,,j,1,2.84074,,,,,,,"Mely billentyű jelzi azokat a képeket, amelyek maradhatnak a galériában, a bemutatott helyen?",D billentyű    F billentyű   J billentyű    K billentyű,j,A helyes válasz: J billentyű.,A helyes válasz: J billentyű.,"Az első feladat nagyjából 25 percet vesz igénybe, közben két rövid szünettel. Ügyeljen, hogy ezek a szünetek ne legyenek 2 percnél hosszabbak. 

A 'J' billentyűvel jelölje azokat a képeket, amelyek maradhatnak a galériában, a bemutatott helyen.

Az 'F' billentyűvel jelölje a képeket, amelyek nem maradnak kiállítva a bemutatott helyen. ",jUXDHrfV,igen,igen,2020-07-10_11h51.39.253,terkepesz_online,2020.1.3,Win32,60,,,,,,,,,0,1,1,0,1,,,,,,,,,,,,,,,,,,,,,,,,,,,,,,,,,,,,,,,,,,,,,,,,,,,,,,,,,,,,,,,,,,,,,,,,,,,,,,,,,,,,,,,,,,,,,,,,,,,,,,,,,,,,,,,,,,,,,,,,,,,,,,
,,,,,,,,,,,,,,,,,jUXDHrfV,igen,igen,2020-07-10_11h51.39.253,terkepesz_online,2020.1.3,Win32,60,,,,,,,,,,,,,,,,0,0,0,0,1,EncodingPractice,OBJ,LURE,1,stimuli/fractals/166a.jpg,-75,225,1500,Encoding,,,,,,,,,,,,,,,,,,,,,,,,,,,,,,,,,,,,,,,,,,,,,,,,,,,,,,,,,,,,,,,,,,,,,,,,,,,,,,,,,,,,,,,,,,,,,,,,,,,,,,,,,,,,,,
,,,,,,,,,,,,,,,,,jUXDHrfV,igen,igen,2020-07-10_11h51.39.253,terkepesz_online,2020.1.3,Win32,60,,,,,,,,,,,,,,,f,0,1,1,1,1,EncodingPractice,OBJ,TARGET,1,stimuli/fractals/167a.jpg,225,225,500,Encoding,0.61749,,,,,,,,,,,,,,,,,,,,,,,,,,,,,,,,,,,,,,,,,,,,,,,,,,,,,,,,,,,,,,,,,,,,,,,,,,,,,,,,,,,,,,,,,,,,,,,,,,,,,,,,,,,,,
,,,,,,,,,,,,,,,,,jUXDHrfV,igen,igen,2020-07-10_11h51.39.253,terkepesz_online,2020.1.3,Win32,60,,,,,,,,,,,,,,,j,0,2,2,2,1,EncodingPractice,OBJ,FOIL,1,stimuli/fractals/149a.jpg,225,-75,1000,Encoding,0.49243,,,,,,,,,,,,,,,,,,,,,,,,,,,,,,,,,,,,,,,,,,,,,,,,,,,,,,,,,,,,,,,,,,,,,,,,,,,,,,,,,,,,,,,,,,,,,,,,,,,,,,,,,,,,,
,,,,,,,,,,,,,,,,,jUXDHrfV,igen,igen,2020-07-10_11h51.39.253,terkepesz_online,2020.1.3,Win32,60,,,,,,,,,,,,,,,j,0,3,3,3,1,EncodingPractice,LOC,FOIL,1,stimuli/fractals/148b.jpg,225,-75,1000,Encoding,0.7059,,,,,,,,,,,,,,,,,,,,,,,,,,,,,,,,,,,,,,,,,,,,,,,,,,,,,,,,,,,,,,,,,,,,,,,,,,,,,,,,,,,,,,,,,,,,,,,,,,,,,,,,,,,,,
,,,,,,,,,,,,,,,,,jUXDHrfV,igen,igen,2020-07-10_11h51.39.253,terkepesz_online,2020.1.3,Win32,60,,,,,,,,,,,,,,,f,0,4,4,4,1,EncodingPractice,LOC,LURE,1,stimuli/fractals/159a.jpg,-375,225,5000,Encoding,0.34512,,,,,,,,,,,,,,,,,,,,,,,,,,,,,,,,,,,,,,,,,,,,,,,,,,,,,,,,,,,,,,,,,,,,,,,,,,,,,,,,,,,,,,,,,,,,,,,,,,,,,,,,,,,,,
,,,,,,,,,,,,,,,,,jUXDHrfV,igen,igen,2020-07-10_11h51.39.253,terkepesz_online,2020.1.3,Win32,60,,,,,,,,,,,,,,,f,0,5,5,5,1,EncodingPractice,OBJ,LURE,1,stimuli/fractals/177b.jpg,-375,225,800,Encoding,1.06902,,,,,,,,,,,,,,,,,,,,,,,,,,,,,,,,,,,,,,,,,,,,,,,,,,,,,,,,,,,,,,,,,,,,,,,,,,,,,,,,,,,,,,,,,,,,,,,,,,,,,,,,,,,,,
,,,,,,,,,,,,,,,,,jUXDHrfV,igen,igen,2020-07-10_11h51.39.253,terkepesz_online,2020.1.3,Win32,60,,,,,,,,,,,,,,,j,0,6,6,6,1,EncodingPractice,-,-,1,stimuli/fractals/181c.jpg,-75,-75,3000,Encoding,0.620275,,,,,,,,,,,,,,,,,,,,,,,,,,,,,,,,,,,,,,,,,,,,,,,,,,,,,,,,,,,,,,,,,,,,,,,,,,,,,,,,,,,,,,,,,,,,,,,,,,,,,,,,,,,,,
,,,,,,,,,,,,,,,,,jUXDHrfV,igen,igen,2020-07-10_11h51.39.253,terkepesz_online,2020.1.3,Win32,60,,,,,,,,,,,,,,,f,0,7,7,7,1,EncodingPractice,-,-,1,stimuli/fractals/163a.jpg,-225,-225,800,Encoding,0.626905,,,,,,,,,,,,,,,,,,,,,,,,,,,,,,,,,,,,,,,,,,,,,,,,,,,,,,,,,,,,,,,,,,,,,,,,,,,,,,,,,,,,,,,,,,,,,,,,,,,,,,,,,,,,,
,,,,,,,,,,,,,,,,,jUXDHrfV,igen,igen,2020-07-10_11h51.39.253,terkepesz_online,2020.1.3,Win32,60,,,,,,,,,,,,,,,j,0,8,8,8,1,EncodingPractice,LOC,TARGET,1,stimuli/fractals/166a.jpg,-75,225,1500,Encoding,0.119415,,,,,,,,,,,,,,,,,,,,,,,,,,,,,,,,,,,,,,,,,,,,,,,,,,,,,,,,,,,,,,,,,,,,,,,,,,,,,,,,,,,,,,,,,,,,,,,,,,,,,,,,,,,,,
,,,,,,,,,,,,,,,,,jUXDHrfV,igen,igen,2020-07-10_11h51.39.253,terkepesz_online,2020.1.3,Win32,60,,,,,,,,,,,,,,,j,,,,,,,,OLP,1,stimuli/fractals/29c.jpg,375,225,2000,,1.06999,right,25.63708,0,0,0,0,1,1,1,3,stimuli/fractals/29c.jpg,stimuli/fractals/29a.jpg,stimuli/fractals/29b.jpg,375,225,375,75,225,225,-225,-225,,,,,,,,,,,,,,,,,,,,,,,,,,,,,,,,,,,,,,,,,,,,,,,,,,,,,,,,,,,,,,,,,,,,,,,,,,,,,,,,,,,,,,,,
,,,,,,,,,,,,,,,,,jUXDHrfV,igen,igen,2020-07-10_11h51.39.253,terkepesz_online,2020.1.3,Win32,60,,,,,,,,,,,,,,,f,,,,,,,,OLP,1,stimuli/fractals/110c.jpg,375,-75,6000,,1.710455,,,0,1,1,1,1,2,1,3,stimuli/fractals/110c.jpg,stimuli/fractals/110a.jpg,stimuli/fractals/110b.jpg,375,-75,375,75,375,-225,-225,75,,,,,,,,,,,,,,,,,,,,,,,,,,,,,,,,,,,,,,,,,,,,,,,,,,,,,,,,,,,,,,,,,,,,,,,,,,,,,,,,,,,,,,,,
,,,,,,,,,,,,,,,,,jUXDHrfV,igen,igen,2020-07-10_11h51.39.253,terkepesz_online,2020.1.3,Win32,60,,,,,,,,,,,,,,,j,,,,,,,,LLP,1,stimuli/fractals/6c.jpg,75,-75,2000,,2.25114,,,0,2,2,2,1,3,1,5,stimuli/fractals/6c.jpg,stimuli/fractals/6b.jpg,stimuli/fractals/6a.jpg,75,-75,225,-75,-75,-75,-375,225,,,,,,,,,,,,,,,,,,,,,,,,,,,,,,,,,,,,,,,,,,,,,,,,,,,,,,,,,,,,,,,,,,,,,,,,,,,,,,,,,,,,,,,,
,,,,,,,,,,,,,,,,,jUXDHrfV,igen,igen,2020-07-10_11h51.39.253,terkepesz_online,2020.1.3,Win32,60,,,,,,,,,,,,,,,f,,,,,,,,ERP,1,stimuli/fractals/79a.jpg,-75,225,1000,,1.269015,,,0,3,3,3,1,4,1,2,stimuli/fractals/79a.jpg,stimuli/fractals/79c.jpg,stimuli/fractals/79b.jpg,-75,225,-75,75,-225,225,375,-225,,,,,,,,,,,,,,,,,,,,,,,,,,,,,,,,,,,,,,,,,,,,,,,,,,,,,,,,,,,,,,,,,,,,,,,,,,,,,,,,,,,,,,,,
,,,,,,,,,,,,,,,,,jUXDHrfV,igen,igen,2020-07-10_11h51.39.253,terkepesz_online,2020.1.3,Win32,60,,,,,,,,,,,,,,,j,,,,,,,,OLP,2,stimuli/fractals/29a.jpg,375,225,5000,,1.633595,,,0,4,4,4,1,5,1,0,stimuli/fractals/29c.jpg,stimuli/fractals/29a.jpg,stimuli/fractals/29b.jpg,375,225,375,75,225,225,-225,-225,,,,,,,,,,,,,,,,,,,,,,,,,,,,,,,,,,,,,,,,,,,,,,,,,,,,,,,,,,,,,,,,,,,,,,,,,,,,,,,,,,,,,,,,
,,,,,,,,,,,,,,,,,jUXDHrfV,igen,igen,2020-07-10_11h51.39.253,terkepesz_online,2020.1.3,Win32,60,,,,,,,,,,,,,,,f,,,,,,,,OLP,2,stimuli/fractals/110a.jpg,375,-75,3000,,1.582835,,,0,5,5,5,1,6,1,0,stimuli/fractals/110c.jpg,stimuli/fractals/110a.jpg,stimuli/fractals/110b.jpg,375,-75,375,75,375,-225,-225,75,,,,,,,,,,,,,,,,,,,,,,,,,,,,,,,,,,,,,,,,,,,,,,,,,,,,,,,,,,,,,,,,,,,,,,,,,,,,,,,,,,,,,,,,
,,,,,,,,,,,,,,,,,jUXDHrfV,igen,igen,2020-07-10_11h51.39.253,terkepesz_online,2020.1.3,Win32,60,,,,,,,,,,,,,,,j,,,,,,,,ERP,2,stimuli/fractals/79a.jpg,-75,225,6000,,0.70212,,,0,6,6,6,1,7,1,0,stimuli/fractals/79a.jpg,stimuli/fractals/79c.jpg,stimuli/fractals/79b.jpg,-75,225,-75,75,-225,225,375,-225,,,,,,,,,,,,,,,,,,,,,,,,,,,,,,,,,,,,,,,,,,,,,,,,,,,,,,,,,,,,,,,,,,,,,,,,,,,,,,,,,,,,,,,,
,,,,,,,,,,,,,,,,,jUXDHrfV,igen,igen,2020-07-10_11h51.39.253,terkepesz_online,2020.1.3,Win32,60,,,,,,,,,,,,,,,f,,,,,,,,ERP,1,stimuli/fractals/95a.jpg,-75,-75,2000,,1.056195,,,0,7,7,7,1,8,1,5,stimuli/fractals/95a.jpg,stimuli/fractals/95c.jpg,stimuli/fractals/95b.jpg,-75,-75,75,-75,-75,75,375,225,,,,,,,,,,,,,,,,,,,,,,,,,,,,,,,,,,,,,,,,,,,,,,,,,,,,,,,,,,,,,,,,,,,,,,,,,,,,,,,,,,,,,,,,
,,,,,,,,,,,,,,,,,jUXDHrfV,igen,igen,2020-07-10_11h51.39.253,terkepesz_online,2020.1.3,Win32,60,,,,,,,,,,,,,,,f,,,,,,,,LLP,2,stimuli/fractals/6c.jpg,225,-75,2000,,2.379905,,,0,8,8,8,1,9,1,0,stimuli/fractals/6c.jpg,stimuli/fractals/6b.jpg,stimuli/fractals/6a.jpg,75,-75,225,-75,-75,-75,-375,225,,,,,,,,,,,,,,,,,,,,,,,,,,,,,,,,,,,,,,,,,,,,,,,,,,,,,,,,,,,,,,,,,,,,,,,,,,,,,,,,,,,,,,,,
,,,,,,,,,,,,,,,,,jUXDHrfV,igen,igen,2020-07-10_11h51.39.253,terkepesz_online,2020.1.3,Win32,60,,,,,,,,,,,,,,,j,,,,,,,,LLP,1,stimuli/fractals/28c.jpg,-75,225,3000,,0.697205,,,0,9,9,9,1,10,1,4,stimuli/fractals/28c.jpg,stimuli/fractals/28a.jpg,stimuli/fractals/28b.jpg,-75,225,75,225,-225,225,375,-75,,,,,,,,,,,,,,,,,,,,,,,,,,,,,,,,,,,,,,,,,,,,,,,,,,,,,,,,,,,,,,,,,,,,,,,,,,,,,,,,,,,,,,,,
,,,,,,,,,,,,,,,,,jUXDHrfV,igen,igen,2020-07-10_11h51.39.253,terkepesz_online,2020.1.3,Win32,60,,,,,,,,,,,,,,,f,,,,,,,,ERP,1,stimuli/fractals/24c.jpg,-225,75,2000,,0.51035,,,0,10,10,10,1,11,1,1,stimuli/fractals/24c.jpg,stimuli/fractals/24a.jpg,stimuli/fractals/24b.jpg,-225,75,-375,75,-225,-75,375,-75,,,,,,,,,,,,,,,,,,,,,,,,,,,,,,,,,,,,,,,,,,,,,,,,,,,,,,,,,,,,,,,,,,,,,,,,,,,,,,,,,,,,,,,,
,,,,,,,,,,,,,,,,,jUXDHrfV,igen,igen,2020-07-10_11h51.39.253,terkepesz_online,2020.1.3,Win32,60,,,,,,,,,,,,,,,j,,,,,,,,OLP,1,stimuli/fractals/56b.jpg,-75,-225,2000,,1.27366,,,0,11,11,11,1,12,1,4,stimuli/fractals/56b.jpg,stimuli/fractals/56a.jpg,stimuli/fractals/56c.jpg,-75,-225,-75,-75,-225,-225,375,225,,,,,,,,,,,,,,,,,,,,,,,,,,,,,,,,,,,,,,,,,,,,,,,,,,,,,,,,,,,,,,,,,,,,,,,,,,,,,,,,,,,,,,,,
,,,,,,,,,,,,,,,,,jUXDHrfV,igen,igen,2020-07-10_11h51.39.253,terkepesz_online,2020.1.3,Win32,60,,,,,,,,,,,,,,,j,,,,,,,,ERP,2,stimuli/fractals/24c.jpg,-225,75,2000,,0.9589,,,0,12,12,12,1,13,1,0,stimuli/fractals/24c.jpg,stimuli/fractals/24a.jpg,stimuli/fractals/24b.jpg,-225,75,-375,75,-225,-75,375,-75,,,,,,,,,,,,,,,,,,,,,,,,,,,,,,,,,,,,,,,,,,,,,,,,,,,,,,,,,,,,,,,,,,,,,,,,,,,,,,,,,,,,,,,,
,,,,,,,,,,,,,,,,,jUXDHrfV,igen,igen,2020-07-10_11h51.39.253,terkepesz_online,2020.1.3,Win32,60,,,,,,,,,,,,,,,j,,,,,,,,ERP,2,stimuli/fractals/95a.jpg,-75,-75,500,,1.408685,,,0,13,13,13,1,14,1,0,stimuli/fractals/95a.jpg,stimuli/fractals/95c.jpg,stimuli/fractals/95b.jpg,-75,-75,75,-75,-75,75,375,225,,,,,,,,,,,,,,,,,,,,,,,,,,,,,,,,,,,,,,,,,,,,,,,,,,,,,,,,,,,,,,,,,,,,,,,,,,,,,,,,,,,,,,,,
,,,,,,,,,,,,,,,,,jUXDHrfV,igen,igen,2020-07-10_11h51.39.253,terkepesz_online,2020.1.3,Win32,60,,,,,,,,,,,,,,,j,,,,,,,,LLP,2,stimuli/fractals/28c.jpg,75,225,500,,1.450175,,,0,14,14,14,1,15,1,0,stimuli/fractals/28c.jpg,stimuli/fractals/28a.jpg,stimuli/fractals/28b.jpg,-75,225,75,225,-225,225,375,-75,,,,,,,,,,,,,,,,,,,,,,,,,,,,,,,,,,,,,,,,,,,,,,,,,,,,,,,,,,,,,,,,,,,,,,,,,,,,,,,,,,,,,,,,
,,,,,,,,,,,,,,,,,jUXDHrfV,igen,igen,2020-07-10_11h51.39.253,terkepesz_online,2020.1.3,Win32,60,,,,,,,,,,,,,,,j,,,,,,,,LLP,1,stimuli/fractals/37a.jpg,75,225,1000,,1.02345,,,0,15,15,15,1,16,1,2,stimuli/fractals/37a.jpg,stimuli/fractals/37b.jpg,stimuli/fractals/37c.jpg,75,225,-75,225,225,225,-375,-225,,,,,,,,,,,,,,,,,,,,,,,,,,,,,,,,,,,,,,,,,,,,,,,,,,,,,,,,,,,,,,,,,,,,,,,,,,,,,,,,,,,,,,,,
,,,,,,,,,,,,,,,,,jUXDHrfV,igen,igen,2020-07-10_11h51.39.253,terkepesz_online,2020.1.3,Win32,60,,,,,,,,,,,,,,,j,,,,,,,,OLP,2,stimuli/fractals/56a.jpg,-75,-225,3000,,1.33618,,,0,16,16,16,1,17,1,0,stimuli/fractals/56b.jpg,stimuli/fractals/56a.jpg,stimuli/fractals/56c.jpg,-75,-225,-75,-75,-225,-225,375,225,,,,,,,,,,,,,,,,,,,,,,,,,,,,,,,,,,,,,,,,,,,,,,,,,,,,,,,,,,,,,,,,,,,,,,,,,,,,,,,,,,,,,,,,
,,,,,,,,,,,,,,,,,jUXDHrfV,igen,igen,2020-07-10_11h51.39.253,terkepesz_online,2020.1.3,Win32,60,,,,,,,,,,,,,,,f,,,,,,,,OLP,1,stimuli/fractals/15b.jpg,75,-75,4000,,0.92291,,,0,17,17,17,1,18,1,1,stimuli/fractals/15b.jpg,stimuli/fractals/15c.jpg,stimuli/fractals/15a.jpg,75,-75,-75,-75,75,75,-375,225,,,,,,,,,,,,,,,,,,,,,,,,,,,,,,,,,,,,,,,,,,,,,,,,,,,,,,,,,,,,,,,,,,,,,,,,,,,,,,,,,,,,,,,,
,,,,,,,,,,,,,,,,,jUXDHrfV,igen,igen,2020-07-10_11h51.39.253,terkepesz_online,2020.1.3,Win32,60,,,,,,,,,,,,,,,j,,,,,,,,LLP,2,stimuli/fractals/37a.jpg,-75,225,1000,,0.8613,,,0,18,18,18,1,19,1,0,stimuli/fractals/37a.jpg,stimuli/fractals/37b.jpg,stimuli/fractals/37c.jpg,75,225,-75,225,225,225,-375,-225,,,,,,,,,,,,,,,,,,,,,,,,,,,,,,,,,,,,,,,,,,,,,,,,,,,,,,,,,,,,,,,,,,,,,,,,,,,,,,,,,,,,,,,,
,,,,,,,,,,,,,,,,,jUXDHrfV,igen,igen,2020-07-10_11h51.39.253,terkepesz_online,2020.1.3,Win32,60,,,,,,,,,,,,,,,f,,,,,,,,OLP,2,stimuli/fractals/15c.jpg,75,-75,2000,,0.843665,,,0,19,19,19,1,20,1,0,stimuli/fractals/15b.jpg,stimuli/fractals/15c.jpg,stimuli/fractals/15a.jpg,75,-75,-75,-75,75,75,-375,225,,,,,,,,,,,,,,,,,,,,,,,,,,,,,,,,,,,,,,,,,,,,,,,,,,,,,,,,,,,,,,,,,,,,,,,,,,,,,,,,,,,,,,,,
,,,,,,,,,,,,,,,,,jUXDHrfV,igen,igen,2020-07-10_11h51.39.253,terkepesz_online,2020.1.3,Win32,60,,,,,,,,,,,,,,,j,,,,,,,,BL,0,stimuli/fractals/64a.jpg,225,-75,5000,,1.20899,,,0,20,20,20,1,21,1,0,stimuli/fractals/64a.jpg,stimuli/fractals/64b.jpg,stimuli/fractals/64c.jpg,225,-75,225,75,75,-75,-375,-225,,,,,,,,,,,,,,,,,,,,,,,,,,,,,,,,,,,,,,,,,,,,,,,,,,,,,,,,,,,,,,,,,,,,,,,,,,,,,,,,,,,,,,,,
,,,,,,,,,,,,,,,,,jUXDHrfV,igen,igen,2020-07-10_11h51.39.253,terkepesz_online,2020.1.3,Win32,60,,,,,,,,,,,,,,,j,,,,,,,,ERP,1,stimuli/fractals/116a.jpg,375,75,1000,,1.188575,,,0,21,21,21,1,22,1,3,stimuli/fractals/116a.jpg,stimuli/fractals/116b.jpg,stimuli/fractals/116c.jpg,375,75,375,225,225,75,-225,-225,,,,,,,,,,,,,,,,,,,,,,,,,,,,,,,,,,,,,,,,,,,,,,,,,,,,,,,,,,,,,,,,,,,,,,,,,,,,,,,,,,,,,,,,
,,,,,,,,,,,,,,,,,jUXDHrfV,igen,igen,2020-07-10_11h51.39.253,terkepesz_online,2020.1.3,Win32,60,,,,,,,,,,,,,,,f,,,,,,,,LLP,1,stimuli/fractals/18c.jpg,75,75,2000,,0.82417,,,0,22,22,22,1,23,1,5,stimuli/fractals/18c.jpg,stimuli/fractals/18a.jpg,stimuli/fractals/18b.jpg,75,75,-75,75,75,-75,-375,-225,,,,,,,,,,,,,,,,,,,,,,,,,,,,,,,,,,,,,,,,,,,,,,,,,,,,,,,,,,,,,,,,,,,,,,,,,,,,,,,,,,,,,,,,
,,,,,,,,,,,,,,,,,jUXDHrfV,igen,igen,2020-07-10_11h51.39.253,terkepesz_online,2020.1.3,Win32,60,,,,,,,,,,,,,,,f,,,,,,,,ERP,1,stimuli/fractals/90c.jpg,375,225,1000,,0.699175,,,0,23,23,23,1,24,1,2,stimuli/fractals/90c.jpg,stimuli/fractals/90a.jpg,stimuli/fractals/90b.jpg,375,225,375,75,225,225,-375,-225,,,,,,,,,,,,,,,,,,,,,,,,,,,,,,,,,,,,,,,,,,,,,,,,,,,,,,,,,,,,,,,,,,,,,,,,,,,,,,,,,,,,,,,,
,,,,,,,,,,,,,,,,,jUXDHrfV,igen,igen,2020-07-10_11h51.39.253,terkepesz_online,2020.1.3,Win32,60,,,,,,,,,,,,,,,f,,,,,,,,ERP,1,stimuli/fractals/137b.jpg,-75,75,2000,,1.03486,,,0,24,24,24,1,25,1,5,stimuli/fractals/137b.jpg,stimuli/fractals/137c.jpg,stimuli/fractals/137a.jpg,-75,75,-75,225,75,75,375,-225,,,,,,,,,,,,,,,,,,,,,,,,,,,,,,,,,,,,,,,,,,,,,,,,,,,,,,,,,,,,,,,,,,,,,,,,,,,,,,,,,,,,,,,,
,,,,,,,,,,,,,,,,,jUXDHrfV,igen,igen,2020-07-10_11h51.39.253,terkepesz_online,2020.1.3,Win32,60,,,,,,,,,,,,,,,j,,,,,,,,ERP,2,stimuli/fractals/116a.jpg,375,75,1000,,2.39672,,,0,25,25,25,1,26,1,0,stimuli/fractals/116a.jpg,stimuli/fractals/116b.jpg,stimuli/fractals/116c.jpg,375,75,375,225,225,75,-225,-225,,,,,,,,,,,,,,,,,,,,,,,,,,,,,,,,,,,,,,,,,,,,,,,,,,,,,,,,,,,,,,,,,,,,,,,,,,,,,,,,,,,,,,,,
,,,,,,,,,,,,,,,,,jUXDHrfV,igen,igen,2020-07-10_11h51.39.253,terkepesz_online,2020.1.3,Win32,60,,,,,,,,,,,,,,,f,,,,,,,,ERP,2,stimuli/fractals/90c.jpg,375,225,5000,,0.91549,,,0,26,26,26,1,27,1,0,stimuli/fractals/90c.jpg,stimuli/fractals/90a.jpg,stimuli/fractals/90b.jpg,375,225,375,75,225,225,-375,-225,,,,,,,,,,,,,,,,,,,,,,,,,,,,,,,,,,,,,,,,,,,,,,,,,,,,,,,,,,,,,,,,,,,,,,,,,,,,,,,,,,,,,,,,
,,,,,,,,,,,,,,,,,jUXDHrfV,igen,igen,2020-07-10_11h51.39.253,terkepesz_online,2020.1.3,Win32,60,,,,,,,,,,,,,,,j,,,,,,,,OLP,1,stimuli/fractals/107b.jpg,225,225,2000,,1.083505,,,0,27,27,27,1,28,1,3,stimuli/fractals/107b.jpg,stimuli/fractals/107c.jpg,stimuli/fractals/107a.jpg,225,225,75,225,375,225,-375,-225,,,,,,,,,,,,,,,,,,,,,,,,,,,,,,,,,,,,,,,,,,,,,,,,,,,,,,,,,,,,,,,,,,,,,,,,,,,,,,,,,,,,,,,,
,,,,,,,,,,,,,,,,,jUXDHrfV,igen,igen,2020-07-10_11h51.39.253,terkepesz_online,2020.1.3,Win32,60,,,,,,,,,,,,,,,f,,,,,,,,LLP,2,stimuli/fractals/18c.jpg,-75,75,4000,,0.714205,,,0,28,28,28,1,29,1,0,stimuli/fractals/18c.jpg,stimuli/fractals/18a.jpg,stimuli/fractals/18b.jpg,75,75,-75,75,75,-75,-375,-225,,,,,,,,,,,,,,,,,,,,,,,,,,,,,,,,,,,,,,,,,,,,,,,,,,,,,,,,,,,,,,,,,,,,,,,,,,,,,,,,,,,,,,,,
,,,,,,,,,,,,,,,,,jUXDHrfV,igen,igen,2020-07-10_11h51.39.253,terkepesz_online,2020.1.3,Win32,60,,,,,,,,,,,,,,,j,,,,,,,,OLP,1,stimuli/fractals/46c.jpg,-75,75,1000,,1.34791,,,0,29,29,29,1,30,1,2,stimuli/fractals/46c.jpg,stimuli/fractals/46a.jpg,stimuli/fractals/46b.jpg,-75,75,-225,75,75,75,375,-225,,,,,,,,,,,,,,,,,,,,,,,,,,,,,,,,,,,,,,,,,,,,,,,,,,,,,,,,,,,,,,,,,,,,,,,,,,,,,,,,,,,,,,,,
,,,,,,,,,,,,,,,,,jUXDHrfV,igen,igen,2020-07-10_11h51.39.253,terkepesz_online,2020.1.3,Win32,60,,,,,,,,,,,,,,,f,,,,,,,,ERP,2,stimuli/fractals/137b.jpg,-75,75,3000,,0.689915,,,0,30,30,30,1,31,1,0,stimuli/fractals/137b.jpg,stimuli/fractals/137c.jpg,stimuli/fractals/137a.jpg,-75,75,-75,225,75,75,375,-225,,,,,,,,,,,,,,,,,,,,,,,,,,,,,,,,,,,,,,,,,,,,,,,,,,,,,,,,,,,,,,,,,,,,,,,,,,,,,,,,,,,,,,,,
,,,,,,,,,,,,,,,,,jUXDHrfV,igen,igen,2020-07-10_11h51.39.253,terkepesz_online,2020.1.3,Win32,60,,,,,,,,,,,,,,,j,,,,,,,,OLP,2,stimuli/fractals/107c.jpg,225,225,4000,,0.554465,,,0,31,31,31,1,32,1,0,stimuli/fractals/107b.jpg,stimuli/fractals/107c.jpg,stimuli/fractals/107a.jpg,225,225,75,225,375,225,-375,-225,,,,,,,,,,,,,,,,,,,,,,,,,,,,,,,,,,,,,,,,,,,,,,,,,,,,,,,,,,,,,,,,,,,,,,,,,,,,,,,,,,,,,,,,
,,,,,,,,,,,,,,,,,jUXDHrfV,igen,igen,2020-07-10_11h51.39.253,terkepesz_online,2020.1.3,Win32,60,,,,,,,,,,,,,,,j,,,,,,,,OLP,2,stimuli/fractals/46a.jpg,-75,75,1000,,0.83079,,,0,32,32,32,1,33,1,0,stimuli/fractals/46c.jpg,stimuli/fractals/46a.jpg,stimuli/fractals/46b.jpg,-75,75,-225,75,75,75,375,-225,,,,,,,,,,,,,,,,,,,,,,,,,,,,,,,,,,,,,,,,,,,,,,,,,,,,,,,,,,,,,,,,,,,,,,,,,,,,,,,,,,,,,,,,
,,,,,,,,,,,,,,,,,jUXDHrfV,igen,igen,2020-07-10_11h51.39.253,terkepesz_online,2020.1.3,Win32,60,,,,,,,,,,,,,,,f,,,,,,,,ERP,1,stimuli/fractals/120a.jpg,-375,-75,3000,,1.956905,,,0,33,33,33,1,34,1,4,stimuli/fractals/120a.jpg,stimuli/fractals/120c.jpg,stimuli/fractals/120b.jpg,-375,-75,-375,-225,-225,-75,375,225,,,,,,,,,,,,,,,,,,,,,,,,,,,,,,,,,,,,,,,,,,,,,,,,,,,,,,,,,,,,,,,,,,,,,,,,,,,,,,,,,,,,,,,,
,,,,,,,,,,,,,,,,,jUXDHrfV,igen,igen,2020-07-10_11h51.39.253,terkepesz_online,2020.1.3,Win32,60,,,,,,,,,,,,,,,,,,,,,,,OLP,1,stimuli/fractals/59b.jpg,-375,225,7000,,,,,0,34,34,34,1,35,1,1,stimuli/fractals/59b.jpg,stimuli/fractals/59a.jpg,stimuli/fractals/59c.jpg,-375,225,-225,225,-375,75,375,-75,,,,,,,,,,,,,,,,,,,,,,,,,,,,,,,,,,,,,,,,,,,,,,,,,,,,,,,,,,,,,,,,,,,,,,,,,,,,,,,,,,,,,,,,
,,,,,,,,,,,,,,,,,jUXDHrfV,igen,igen,2020-07-10_11h51.39.253,terkepesz_online,2020.1.3,Win32,60,,,,,,,,,,,,,,f,j,,,,,,,,LLP,1,stimuli/fractals/140c.jpg,375,-75,1000,,0.595835,,,0,35,35,35,1,36,1,4,stimuli/fractals/140c.jpg,stimuli/fractals/140b.jpg,stimuli/fractals/140a.jpg,375,-75,225,-75,375,-225,-225,75,0.116255,,,,,,,,,,,,,,,,,,,,,,,,,,,,,,,,,,,,,,,,,,,,,,,,,,,,,,,,,,,,,,,,,,,,,,,,,,,,,,,,,,,,,,,
,,,,,,,,,,,,,,,,,jUXDHrfV,igen,igen,2020-07-10_11h51.39.253,terkepesz_online,2020.1.3,Win32,60,,,,,,,,,,,,,,,f,,,,,,,,OLP,2,stimuli/fractals/59a.jpg,-375,225,1000,,1.348675,,,0,36,36,36,1,37,1,0,stimuli/fractals/59b.jpg,stimuli/fractals/59a.jpg,stimuli/fractals/59c.jpg,-375,225,-225,225,-375,75,375,-75,,,,,,,,,,,,,,,,,,,,,,,,,,,,,,,,,,,,,,,,,,,,,,,,,,,,,,,,,,,,,,,,,,,,,,,,,,,,,,,,,,,,,,,,
,,,,,,,,,,,,,,,,,jUXDHrfV,igen,igen,2020-07-10_11h51.39.253,terkepesz_online,2020.1.3,Win32,60,,,,,,,,,,,,,,,f,,,,,,,,LLP,1,stimuli/fractals/136a.jpg,-375,75,3000,,1.391355,,,0,37,37,37,1,38,1,1,stimuli/fractals/136a.jpg,stimuli/fractals/136b.jpg,stimuli/fractals/136c.jpg,-375,75,-375,-75,-375,225,375,75,,,,,,,,,,,,,,,,,,,,,,,,,,,,,,,,,,,,,,,,,,,,,,,,,,,,,,,,,,,,,,,,,,,,,,,,,,,,,,,,,,,,,,,,
,,,,,,,,,,,,,,,,,jUXDHrfV,igen,igen,2020-07-10_11h51.39.253,terkepesz_online,2020.1.3,Win32,60,,,,,,,,,,,,,,,f,,,,,,,,ERP,2,stimuli/fractals/120a.jpg,-375,-75,2000,,0.991155,,,0,38,38,38,1,39,1,0,stimuli/fractals/120a.jpg,stimuli/fractals/120c.jpg,stimuli/fractals/120b.jpg,-375,-75,-375,-225,-225,-75,375,225,,,,,,,,,,,,,,,,,,,,,,,,,,,,,,,,,,,,,,,,,,,,,,,,,,,,,,,,,,,,,,,,,,,,,,,,,,,,,,,,,,,,,,,,
,,,,,,,,,,,,,,,,,jUXDHrfV,igen,igen,2020-07-10_11h51.39.253,terkepesz_online,2020.1.3,Win32,60,,,,,,,,,,,,,,,f,,,,,,,,LLP,2,stimuli/fractals/136a.jpg,-375,-75,1000,,0.671785,,,0,39,39,39,1,40,1,0,stimuli/fractals/136a.jpg,stimuli/fractals/136b.jpg,stimuli/fractals/136c.jpg,-375,75,-375,-75,-375,225,375,75,,,,,,,,,,,,,,,,,,,,,,,,,,,,,,,,,,,,,,,,,,,,,,,,,,,,,,,,,,,,,,,,,,,,,,,,,,,,,,,,,,,,,,,,
,,,,,,,,,,,,,,,,,jUXDHrfV,igen,igen,2020-07-10_11h51.39.253,terkepesz_online,2020.1.3,Win32,60,,,,,,,,,,,,,,,j,,,,,,,,LLP,2,stimuli/fractals/140c.jpg,225,-75,3000,,0.794385,,,0,40,40,40,1,41,1,0,stimuli/fractals/140c.jpg,stimuli/fractals/140b.jpg,stimuli/fractals/140a.jpg,375,-75,225,-75,375,-225,-225,75,,,,,,,,,,,,,,,,,,,,,,,,,,,,,,,,,,,,,,,,,,,,,,,,,,,,,,,,,,,,,,,,,,,,,,,,,,,,,,,,,,,,,,,,
,,,,,,,,,,,,,,,,,jUXDHrfV,igen,igen,2020-07-10_11h51.39.253,terkepesz_online,2020.1.3,Win32,60,,,,,,,,,,,,,,,f,,,,,,,,BL,0,stimuli/fractals/64a.jpg,225,-75,3000,,1.121805,,,0,41,41,41,1,42,1,0,stimuli/fractals/64a.jpg,stimuli/fractals/64b.jpg,stimuli/fractals/64c.jpg,225,-75,225,75,75,-75,-375,-225,,,,,,,,,,,,,,,,,,,,,,,,,,,,,,,,,,,,,,,,,,,,,,,,,,,,,,,,,,,,,,,,,,,,,,,,,,,,,,,,,,,,,,,,
,,,,,,,,,,,,,,,,,jUXDHrfV,igen,igen,2020-07-10_11h51.39.253,terkepesz_online,2020.1.3,Win32,60,,,,,,,,,,,,,,,f,,,,,,,,OLP,1,stimuli/fractals/129c.jpg,75,-75,2000,,1.160785,,,0,42,42,42,1,43,1,2,stimuli/fractals/129c.jpg,stimuli/fractals/129a.jpg,stimuli/fractals/129b.jpg,75,-75,75,75,225,-75,-375,225,,,,,,,,,,,,,,,,,,,,,,,,,,,,,,,,,,,,,,,,,,,,,,,,,,,,,,,,,,,,,,,,,,,,,,,,,,,,,,,,,,,,,,,,
,,,,,,,,,,,,,,,,,jUXDHrfV,igen,igen,2020-07-10_11h51.39.253,terkepesz_online,2020.1.3,Win32,60,,,,,,,,,,,,,,,f,,,,,,,,OLP,1,stimuli/fractals/63a.jpg,-75,75,2000,,0.64132,,,0,43,43,43,1,44,1,5,stimuli/fractals/63a.jpg,stimuli/fractals/63c.jpg,stimuli/fractals/63b.jpg,-75,75,75,75,-75,225,375,-225,,,,,,,,,,,,,,,,,,,,,,,,,,,,,,,,,,,,,,,,,,,,,,,,,,,,,,,,,,,,,,,,,,,,,,,,,,,,,,,,,,,,,,,,
,,,,,,,,,,,,,,,,,jUXDHrfV,igen,igen,2020-07-10_11h51.39.253,terkepesz_online,2020.1.3,Win32,60,,,,,,,,,,,,,,,f,,,,,,,,ERP,1,stimuli/fractals/126b.jpg,-375,225,1000,,1.289315,,,0,44,44,44,1,45,1,5,stimuli/fractals/126b.jpg,stimuli/fractals/126a.jpg,stimuli/fractals/126c.jpg,-375,225,-375,75,-225,225,375,-225,,,,,,,,,,,,,,,,,,,,,,,,,,,,,,,,,,,,,,,,,,,,,,,,,,,,,,,,,,,,,,,,,,,,,,,,,,,,,,,,,,,,,,,,
,,,,,,,,,,,,,,,,,jUXDHrfV,igen,igen,2020-07-10_11h51.39.253,terkepesz_online,2020.1.3,Win32,60,,,,,,,,,,,,,,,f,,,,,,,,OLP,2,stimuli/fractals/129a.jpg,75,-75,4000,,0.62451,,,0,45,45,45,1,46,1,0,stimuli/fractals/129c.jpg,stimuli/fractals/129a.jpg,stimuli/fractals/129b.jpg,75,-75,75,75,225,-75,-375,225,,,,,,,,,,,,,,,,,,,,,,,,,,,,,,,,,,,,,,,,,,,,,,,,,,,,,,,,,,,,,,,,,,,,,,,,,,,,,,,,,,,,,,,,
,,,,,,,,,,,,,,,,,jUXDHrfV,igen,igen,2020-07-10_11h51.39.253,terkepesz_online,2020.1.3,Win32,60,,,,,,,,,,,,,,,f,,,,,,,,LLP,1,stimuli/fractals/45a.jpg,-375,-75,1000,,0.67022,,,0,46,46,46,1,47,1,1,stimuli/fractals/45a.jpg,stimuli/fractals/45c.jpg,stimuli/fractals/45b.jpg,-375,-75,-375,-225,-225,-75,225,-225,,,,,,,,,,,,,,,,,,,,,,,,,,,,,,,,,,,,,,,,,,,,,,,,,,,,,,,,,,,,,,,,,,,,,,,,,,,,,,,,,,,,,,,,
,,,,,,,,,,,,,,,,,jUXDHrfV,igen,igen,2020-07-10_11h51.39.253,terkepesz_online,2020.1.3,Win32,60,,,,,,,,,,,,,,,f,,,,,,,,ERP,1,stimuli/fractals/94a.jpg,225,-225,1000,,0.7368,,,0,47,47,47,1,48,1,3,stimuli/fractals/94a.jpg,stimuli/fractals/94c.jpg,stimuli/fractals/94b.jpg,225,-225,75,-225,225,-75,-375,225,,,,,,,,,,,,,,,,,,,,,,,,,,,,,,,,,,,,,,,,,,,,,,,,,,,,,,,,,,,,,,,,,,,,,,,,,,,,,,,,,,,,,,,,
,,,,,,,,,,,,,,,,,jUXDHrfV,igen,igen,2020-07-10_11h51.39.253,terkepesz_online,2020.1.3,Win32,60,,,,,,,,,,,,,,,f,,,,,,,,LLP,2,stimuli/fractals/45a.jpg,-375,-225,1000,,1.26465,,,0,48,48,48,1,49,1,0,stimuli/fractals/45a.jpg,stimuli/fractals/45c.jpg,stimuli/fractals/45b.jpg,-375,-75,-375,-225,-225,-75,225,-225,,,,,,,,,,,,,,,,,,,,,,,,,,,,,,,,,,,,,,,,,,,,,,,,,,,,,,,,,,,,,,,,,,,,,,,,,,,,,,,,,,,,,,,,
,,,,,,,,,,,,,,,,,jUXDHrfV,igen,igen,2020-07-10_11h51.39.253,terkepesz_online,2020.1.3,Win32,60,,,,,,,,,,,,,,,f,,,,,,,,OLP,2,stimuli/fractals/63c.jpg,-75,75,1000,,1.193015,,,0,49,49,49,1,50,1,0,stimuli/fractals/63a.jpg,stimuli/fractals/63c.jpg,stimuli/fractals/63b.jpg,-75,75,75,75,-75,225,375,-225,,,,,,,,,,,,,,,,,,,,,,,,,,,,,,,,,,,,,,,,,,,,,,,,,,,,,,,,,,,,,,,,,,,,,,,,,,,,,,,,,,,,,,,,
,,,,,,,,,,,,,,,,,jUXDHrfV,igen,igen,2020-07-10_11h51.39.253,terkepesz_online,2020.1.3,Win32,60,,,,,,,,,,,,,,,f,,,,,,,,ERP,2,stimuli/fractals/126b.jpg,-375,225,3000,,0.654795,,,0,50,50,50,1,51,1,0,stimuli/fractals/126b.jpg,stimuli/fractals/126a.jpg,stimuli/fractals/126c.jpg,-375,225,-375,75,-225,225,375,-225,,,,,,,,,,,,,,,,,,,,,,,,,,,,,,,,,,,,,,,,,,,,,,,,,,,,,,,,,,,,,,,,,,,,,,,,,,,,,,,,,,,,,,,,
,,,,,,,,,,,,,,,,,jUXDHrfV,igen,igen,2020-07-10_11h51.39.253,terkepesz_online,2020.1.3,Win32,60,,,,,,,,,,,,,,,j,,,,,,,,ERP,2,stimuli/fractals/94a.jpg,225,-225,3000,,0.85271,,,0,51,51,51,1,52,1,0,stimuli/fractals/94a.jpg,stimuli/fractals/94c.jpg,stimuli/fractals/94b.jpg,225,-225,75,-225,225,-75,-375,225,,,,,,,,,,,,,,,,,,,,,,,,,,,,,,,,,,,,,,,,,,,,,,,,,,,,,,,,,,,,,,,,,,,,,,,,,,,,,,,,,,,,,,,,
,,,,,,,,,,,,,,,,,jUXDHrfV,igen,igen,2020-07-10_11h51.39.253,terkepesz_online,2020.1.3,Win32,60,,,,,,,,,,,,,,,f,,,,,,,,OLP,1,stimuli/fractals/19c.jpg,-375,225,500,,0.877755,,,0,52,52,52,1,53,1,1,stimuli/fractals/19c.jpg,stimuli/fractals/19a.jpg,stimuli/fractals/19b.jpg,-375,225,-375,75,-225,225,75,-225,,,,,,,,,,,,,,,,,,,,,,,,,,,,,,,,,,,,,,,,,,,,,,,,,,,,,,,,,,,,,,,,,,,,,,,,,,,,,,,,,,,,,,,,
,,,,,,,,,,,,,,,,,jUXDHrfV,igen,igen,2020-07-10_11h51.39.253,terkepesz_online,2020.1.3,Win32,60,,,,,,,,,,,,,,,f,,,,,,,,OLP,1,stimuli/fractals/62a.jpg,375,75,1000,,1.945,,,0,53,53,53,1,54,1,4,stimuli/fractals/62a.jpg,stimuli/fractals/62c.jpg,stimuli/fractals/62b.jpg,375,75,375,225,225,75,-75,-225,,,,,,,,,,,,,,,,,,,,,,,,,,,,,,,,,,,,,,,,,,,,,,,,,,,,,,,,,,,,,,,,,,,,,,,,,,,,,,,,,,,,,,,,
,,,,,,,,,,,,,,,,,jUXDHrfV,igen,igen,2020-07-10_11h51.39.253,terkepesz_online,2020.1.3,Win32,60,,,,,,,,,,,,,,,j,,,,,,,,OLP,2,stimuli/fractals/19a.jpg,-375,225,1000,,1.413425,,,0,54,54,54,1,55,1,0,stimuli/fractals/19c.jpg,stimuli/fractals/19a.jpg,stimuli/fractals/19b.jpg,-375,225,-375,75,-225,225,75,-225,,,,,,,,,,,,,,,,,,,,,,,,,,,,,,,,,,,,,,,,,,,,,,,,,,,,,,,,,,,,,,,,,,,,,,,,,,,,,,,,,,,,,,,,
,,,,,,,,,,,,,,,,,jUXDHrfV,igen,igen,2020-07-10_11h51.39.253,terkepesz_online,2020.1.3,Win32,60,,,,,,,,,,,,,,,f,,,,,,,,LLP,1,stimuli/fractals/114a.jpg,-225,-75,1000,,1.73318,,,0,55,55,55,1,56,1,4,stimuli/fractals/114a.jpg,stimuli/fractals/114b.jpg,stimuli/fractals/114c.jpg,-225,-75,-225,75,-225,-225,375,225,,,,,,,,,,,,,,,,,,,,,,,,,,,,,,,,,,,,,,,,,,,,,,,,,,,,,,,,,,,,,,,,,,,,,,,,,,,,,,,,,,,,,,,,
,,,,,,,,,,,,,,,,,jUXDHrfV,igen,igen,2020-07-10_11h51.39.253,terkepesz_online,2020.1.3,Win32,60,,,,,,,,,,,,,,,f,,,,,,,,ERP,1,stimuli/fractals/82c.jpg,75,-75,500,,1.216745,,,0,56,56,56,1,57,1,2,stimuli/fractals/82c.jpg,stimuli/fractals/82a.jpg,stimuli/fractals/82b.jpg,75,-75,75,-225,-75,-75,-375,225,,,,,,,,,,,,,,,,,,,,,,,,,,,,,,,,,,,,,,,,,,,,,,,,,,,,,,,,,,,,,,,,,,,,,,,,,,,,,,,,,,,,,,,,
,,,,,,,,,,,,,,,,,jUXDHrfV,igen,igen,2020-07-10_11h51.39.253,terkepesz_online,2020.1.3,Win32,60,,,,,,,,,,,,,,,f,,,,,,,,ERP,1,stimuli/fractals/113a.jpg,75,-225,2000,,1.29973,,,0,57,57,57,1,58,1,3,stimuli/fractals/113a.jpg,stimuli/fractals/113b.jpg,stimuli/fractals/113c.jpg,75,-225,-75,-225,75,-75,-375,75,,,,,,,,,,,,,,,,,,,,,,,,,,,,,,,,,,,,,,,,,,,,,,,,,,,,,,,,,,,,,,,,,,,,,,,,,,,,,,,,,,,,,,,,
,,,,,,,,,,,,,,,,,jUXDHrfV,igen,igen,2020-07-10_11h51.39.253,terkepesz_online,2020.1.3,Win32,60,,,,,,,,,,,,,,,f,,,,,,,,OLP,2,stimuli/fractals/62c.jpg,375,75,500,,0.763375,,,0,58,58,58,1,59,1,0,stimuli/fractals/62a.jpg,stimuli/fractals/62c.jpg,stimuli/fractals/62b.jpg,375,75,375,225,225,75,-75,-225,,,,,,,,,,,,,,,,,,,,,,,,,,,,,,,,,,,,,,,,,,,,,,,,,,,,,,,,,,,,,,,,,,,,,,,,,,,,,,,,,,,,,,,,
,,,,,,,,,,,,,,,,,jUXDHrfV,igen,igen,2020-07-10_11h51.39.253,terkepesz_online,2020.1.3,Win32,60,,,,,,,,,,,,,,,f,,,,,,,,ERP,2,stimuli/fractals/82c.jpg,75,-75,6000,,1.456375,,,0,59,59,59,1,60,1,0,stimuli/fractals/82c.jpg,stimuli/fractals/82a.jpg,stimuli/fractals/82b.jpg,75,-75,75,-225,-75,-75,-375,225,,,,,,,,,,,,,,,,,,,,,,,,,,,,,,,,,,,,,,,,,,,,,,,,,,,,,,,,,,,,,,,,,,,,,,,,,,,,,,,,,,,,,,,,
,,,,,,,,,,,,,,,,,jUXDHrfV,igen,igen,2020-07-10_11h51.39.253,terkepesz_online,2020.1.3,Win32,60,,,,,,,,,,,,,,,f,,,,,,,,LLP,2,stimuli/fractals/114a.jpg,-225,75,8000,,0.652775,,,0,60,60,60,1,61,1,0,stimuli/fractals/114a.jpg,stimuli/fractals/114b.jpg,stimuli/fractals/114c.jpg,-225,-75,-225,75,-225,-225,375,225,,,,,,,,,,,,,,,,,,,,,,,,,,,,,,,,,,,,,,,,,,,,,,,,,,,,,,,,,,,,,,,,,,,,,,,,,,,,,,,,,,,,,,,,
,,,,,,,,,,,,,,,,,jUXDHrfV,igen,igen,2020-07-10_11h51.39.253,terkepesz_online,2020.1.3,Win32,60,,,,,,,,,,,,,,f,f,,,,,,,,ERP,2,stimuli/fractals/113a.jpg,75,-225,7000,,1.04604,,,0,61,61,61,1,62,1,0,stimuli/fractals/113a.jpg,stimuli/fractals/113b.jpg,stimuli/fractals/113c.jpg,75,-225,-75,-225,75,-75,-375,75,3.11436,,,,,,,,,,,,,,,,,,,,,,,,,,,,,,,,,,,,,,,,,,,,,,,,,,,,,,,,,,,,,,,,,,,,,,,,,,,,,,,,,,,,,,,
,,,,,,,,,,,,,,,,,jUXDHrfV,igen,igen,2020-07-10_11h51.39.253,terkepesz_online,2020.1.3,Win32,60,,,,,,,,,,,,,,,f,,,,,,,,BL,0,stimuli/fractals/64a.jpg,225,-75,1000,,1.383715,,,0,62,62,62,1,63,1,0,stimuli/fractals/64a.jpg,stimuli/fractals/64b.jpg,stimuli/fractals/64c.jpg,225,-75,225,75,75,-75,-375,-225,,,,,,,,,,,,,,,,,,,,,,,,,,,,,,,,,,,,,,,,,,,,,,,,,,,,,,,,,,,,,,,,,,,,,,,,,,,,,,,,,,,,,,,,
,,,,,,,,,,,,,,,,,jUXDHrfV,igen,igen,2020-07-10_11h51.39.253,terkepesz_online,2020.1.3,Win32,60,,,,,,,,,,,,,,,j,,,,,,,,OLP,1,stimuli/fractals/34a.jpg,375,-225,4000,,1.32414,,,0,63,63,63,1,64,1,1,stimuli/fractals/34a.jpg,stimuli/fractals/34b.jpg,stimuli/fractals/34c.jpg,375,-225,375,-75,225,-225,-75,225,,,,,,,,,,,,,,,,,,,,,,,,,,,,,,,,,,,,,,,,,,,,,,,,,,,,,,,,,,,,,,,,,,,,,,,,,,,,,,,,,,,,,,,,
,,,,,,,,,,,,,,,,,jUXDHrfV,igen,igen,2020-07-10_11h51.39.253,terkepesz_online,2020.1.3,Win32,60,,,,,,,,,,,,,,,j,,,,,,,,OLP,1,stimuli/fractals/135b.jpg,75,225,2000,,0.77499,,,0,64,64,64,1,65,1,1,stimuli/fractals/135b.jpg,stimuli/fractals/135a.jpg,stimuli/fractals/135c.jpg,75,225,75,75,225,225,-375,-225,,,,,,,,,,,,,,,,,,,,,,,,,,,,,,,,,,,,,,,,,,,,,,,,,,,,,,,,,,,,,,,,,,,,,,,,,,,,,,,,,,,,,,,,
,,,,,,,,,,,,,,,,,jUXDHrfV,igen,igen,2020-07-10_11h51.39.253,terkepesz_online,2020.1.3,Win32,60,,,,,,,,,,,,,,,j,,,,,,,,OLP,2,stimuli/fractals/34b.jpg,375,-225,4000,,0.99112,,,0,65,65,65,1,66,1,0,stimuli/fractals/34a.jpg,stimuli/fractals/34b.jpg,stimuli/fractals/34c.jpg,375,-225,375,-75,225,-225,-75,225,,,,,,,,,,,,,,,,,,,,,,,,,,,,,,,,,,,,,,,,,,,,,,,,,,,,,,,,,,,,,,,,,,,,,,,,,,,,,,,,,,,,,,,,
,,,,,,,,,,,,,,,,,jUXDHrfV,igen,igen,2020-07-10_11h51.39.253,terkepesz_online,2020.1.3,Win32,60,,,,,,,,,,,,,,,j,,,,,,,,OLP,2,stimuli/fractals/135a.jpg,75,225,1000,,0.873645,,,0,66,66,66,1,67,1,0,stimuli/fractals/135b.jpg,stimuli/fractals/135a.jpg,stimuli/fractals/135c.jpg,75,225,75,75,225,225,-375,-225,,,,,,,,,,,,,,,,,,,,,,,,,,,,,,,,,,,,,,,,,,,,,,,,,,,,,,,,,,,,,,,,,,,,,,,,,,,,,,,,,,,,,,,,
,,,,,,,,,,,,,,,,,jUXDHrfV,igen,igen,2020-07-10_11h51.39.253,terkepesz_online,2020.1.3,Win32,60,,,,,,,,,,,,,,,f,,,,,,,,OLP,1,stimuli/fractals/51a.jpg,-75,75,3000,,1.62838,,,0,67,67,67,1,68,1,4,stimuli/fractals/51a.jpg,stimuli/fractals/51c.jpg,stimuli/fractals/51b.jpg,-75,75,-75,-75,-75,225,375,-225,,,,,,,,,,,,,,,,,,,,,,,,,,,,,,,,,,,,,,,,,,,,,,,,,,,,,,,,,,,,,,,,,,,,,,,,,,,,,,,,,,,,,,,,
,,,,,,,,,,,,,,,,,jUXDHrfV,igen,igen,2020-07-10_11h51.39.253,terkepesz_online,2020.1.3,Win32,60,,,,,,,,,,,,,,,f,,,,,,,,LLP,1,stimuli/fractals/74a.jpg,75,75,1000,,2.179685,,,0,68,68,68,1,69,1,2,stimuli/fractals/74a.jpg,stimuli/fractals/74c.jpg,stimuli/fractals/74b.jpg,75,75,-75,75,75,-75,-375,-225,,,,,,,,,,,,,,,,,,,,,,,,,,,,,,,,,,,,,,,,,,,,,,,,,,,,,,,,,,,,,,,,,,,,,,,,,,,,,,,,,,,,,,,,
,,,,,,,,,,,,,,,,,jUXDHrfV,igen,igen,2020-07-10_11h51.39.253,terkepesz_online,2020.1.3,Win32,60,,,,,,,,,,,,,,,j,,,,,,,,OLP,1,stimuli/fractals/52b.jpg,225,-225,1000,,0.70711,,,0,69,69,69,1,70,1,3,stimuli/fractals/52b.jpg,stimuli/fractals/52a.jpg,stimuli/fractals/52c.jpg,225,-225,75,-225,375,-225,-375,225,,,,,,,,,,,,,,,,,,,,,,,,,,,,,,,,,,,,,,,,,,,,,,,,,,,,,,,,,,,,,,,,,,,,,,,,,,,,,,,,,,,,,,,,
,,,,,,,,,,,,,,,,,jUXDHrfV,igen,igen,2020-07-10_11h51.39.253,terkepesz_online,2020.1.3,Win32,60,,,,,,,,,,,,,,,,,,,,,,,ERP,1,stimuli/fractals/27b.jpg,-75,-75,500,,,,,0,70,70,70,1,71,1,5,stimuli/fractals/27b.jpg,stimuli/fractals/27c.jpg,stimuli/fractals/27a.jpg,-75,-75,-225,-75,-75,75,375,225,,,,,,,,,,,,,,,,,,,,,,,,,,,,,,,,,,,,,,,,,,,,,,,,,,,,,,,,,,,,,,,,,,,,,,,,,,,,,,,,,,,,,,,,
,,,,,,,,,,,,,,,,,jUXDHrfV,igen,igen,2020-07-10_11h51.39.253,terkepesz_online,2020.1.3,Win32,60,,,,,,,,,,,,,,f,f,,,,,,,,LLP,2,stimuli/fractals/74a.jpg,-75,75,7000,,0.75973,,,0,71,71,71,1,72,1,0,stimuli/fractals/74a.jpg,stimuli/fractals/74c.jpg,stimuli/fractals/74b.jpg,75,75,-75,75,75,-75,-375,-225,0.01731,,,,,,,,,,,,,,,,,,,,,,,,,,,,,,,,,,,,,,,,,,,,,,,,,,,,,,,,,,,,,,,,,,,,,,,,,,,,,,,,,,,,,,,
,,,,,,,,,,,,,,,,,jUXDHrfV,igen,igen,2020-07-10_11h51.39.253,terkepesz_online,2020.1.3,Win32,60,,,,,,,,,,,,,,,f,,,,,,,,OLP,2,stimuli/fractals/51c.jpg,-75,75,4000,,0.74952,,,0,72,72,72,1,73,1,0,stimuli/fractals/51a.jpg,stimuli/fractals/51c.jpg,stimuli/fractals/51b.jpg,-75,75,-75,-75,-75,225,375,-225,,,,,,,,,,,,,,,,,,,,,,,,,,,,,,,,,,,,,,,,,,,,,,,,,,,,,,,,,,,,,,,,,,,,,,,,,,,,,,,,,,,,,,,,
,,,,,,,,,,,,,,,,,jUXDHrfV,igen,igen,2020-07-10_11h51.39.253,terkepesz_online,2020.1.3,Win32,60,,,,,,,,,,,,,,,j,,,,,,,,OLP,2,stimuli/fractals/52a.jpg,225,-225,2000,,0.79112,,,0,73,73,73,1,74,1,0,stimuli/fractals/52b.jpg,stimuli/fractals/52a.jpg,stimuli/fractals/52c.jpg,225,-225,75,-225,375,-225,-375,225,,,,,,,,,,,,,,,,,,,,,,,,,,,,,,,,,,,,,,,,,,,,,,,,,,,,,,,,,,,,,,,,,,,,,,,,,,,,,,,,,,,,,,,,
,,,,,,,,,,,,,,,,,jUXDHrfV,igen,igen,2020-07-10_11h51.39.253,terkepesz_online,2020.1.3,Win32,60,,,,,,,,,,,,,,,f,,,,,,,,LLP,1,stimuli/fractals/85c.jpg,225,225,2000,,1.446025,,,0,74,74,74,1,75,1,5,stimuli/fractals/85c.jpg,stimuli/fractals/85a.jpg,stimuli/fractals/85b.jpg,225,225,375,225,225,75,-75,-225,,,,,,,,,,,,,,,,,,,,,,,,,,,,,,,,,,,,,,,,,,,,,,,,,,,,,,,,,,,,,,,,,,,,,,,,,,,,,,,,,,,,,,,,
,,,,,,,,,,,,,,,,,jUXDHrfV,igen,igen,2020-07-10_11h51.39.253,terkepesz_online,2020.1.3,Win32,60,,,,,,,,,,,,,,,f,,,,,,,,OLP,1,stimuli/fractals/80c.jpg,-225,-75,2000,,0.547655,,,0,75,75,75,1,76,1,3,stimuli/fractals/80c.jpg,stimuli/fractals/80a.jpg,stimuli/fractals/80b.jpg,-225,-75,-75,-75,-375,-75,375,75,,,,,,,,,,,,,,,,,,,,,,,,,,,,,,,,,,,,,,,,,,,,,,,,,,,,,,,,,,,,,,,,,,,,,,,,,,,,,,,,,,,,,,,,
,,,,,,,,,,,,,,,,,jUXDHrfV,igen,igen,2020-07-10_11h51.39.253,terkepesz_online,2020.1.3,Win32,60,,,,,,,,,,,,,,,f,,,,,,,,ERP,2,stimuli/fractals/27b.jpg,-75,-75,1000,,0.711145,,,0,76,76,76,1,77,1,0,stimuli/fractals/27b.jpg,stimuli/fractals/27c.jpg,stimuli/fractals/27a.jpg,-75,-75,-225,-75,-75,75,375,225,,,,,,,,,,,,,,,,,,,,,,,,,,,,,,,,,,,,,,,,,,,,,,,,,,,,,,,,,,,,,,,,,,,,,,,,,,,,,,,,,,,,,,,,
,,,,,,,,,,,,,,,,,jUXDHrfV,igen,igen,2020-07-10_11h51.39.253,terkepesz_online,2020.1.3,Win32,60,,,,,,,,,,,,,,,f,,,,,,,,OLP,1,stimuli/fractals/121b.jpg,-75,225,7000,,1.360105,,,0,77,77,77,1,78,1,4,stimuli/fractals/121b.jpg,stimuli/fractals/121a.jpg,stimuli/fractals/121c.jpg,-75,225,75,225,-75,75,375,-225,,,,,,,,,,,,,,,,,,,,,,,,,,,,,,,,,,,,,,,,,,,,,,,,,,,,,,,,,,,,,,,,,,,,,,,,,,,,,,,,,,,,,,,,
,,,,,,,,,,,,,,,,,jUXDHrfV,igen,igen,2020-07-10_11h51.39.253,terkepesz_online,2020.1.3,Win32,60,,,,,,,,,,,,,,,f,,,,,,,,ERP,1,stimuli/fractals/134a.jpg,-375,-75,1000,,1.551475,,,0,78,78,78,1,79,1,2,stimuli/fractals/134a.jpg,stimuli/fractals/134b.jpg,stimuli/fractals/134c.jpg,-375,-75,-375,75,-225,-75,375,-225,,,,,,,,,,,,,,,,,,,,,,,,,,,,,,,,,,,,,,,,,,,,,,,,,,,,,,,,,,,,,,,,,,,,,,,,,,,,,,,,,,,,,,,,
,,,,,,,,,,,,,,,,,jUXDHrfV,igen,igen,2020-07-10_11h51.39.253,terkepesz_online,2020.1.3,Win32,60,,,,,,,,,,,,,,,f,,,,,,,,OLP,2,stimuli/fractals/80a.jpg,-225,-75,1000,,1.493655,,,0,79,79,79,1,80,1,0,stimuli/fractals/80c.jpg,stimuli/fractals/80a.jpg,stimuli/fractals/80b.jpg,-225,-75,-75,-75,-375,-75,375,75,,,,,,,,,,,,,,,,,,,,,,,,,,,,,,,,,,,,,,,,,,,,,,,,,,,,,,,,,,,,,,,,,,,,,,,,,,,,,,,,,,,,,,,,
,,,,,,,,,,,,,,,,,jUXDHrfV,igen,igen,2020-07-10_11h51.39.253,terkepesz_online,2020.1.3,Win32,60,,,,,,,,,,,,,,,f,,,,,,,,LLP,2,stimuli/fractals/85c.jpg,375,225,1000,,1.461535,,,0,80,80,80,1,81,1,0,stimuli/fractals/85c.jpg,stimuli/fractals/85a.jpg,stimuli/fractals/85b.jpg,225,225,375,225,225,75,-75,-225,,,,,,,,,,,,,,,,,,,,,,,,,,,,,,,,,,,,,,,,,,,,,,,,,,,,,,,,,,,,,,,,,,,,,,,,,,,,,,,,,,,,,,,,
,,,,,,,,,,,,,,,,,jUXDHrfV,igen,igen,2020-07-10_11h51.39.253,terkepesz_online,2020.1.3,Win32,60,,,,,,,,,,,,,,,f,,,,,,,,ERP,2,stimuli/fractals/134a.jpg,-375,-75,4000,,0.476285,,,0,81,81,81,1,82,1,0,stimuli/fractals/134a.jpg,stimuli/fractals/134b.jpg,stimuli/fractals/134c.jpg,-375,-75,-375,75,-225,-75,375,-225,,,,,,,,,,,,,,,,,,,,,,,,,,,,,,,,,,,,,,,,,,,,,,,,,,,,,,,,,,,,,,,,,,,,,,,,,,,,,,,,,,,,,,,,
,,,,,,,,,,,,,,,,,jUXDHrfV,igen,igen,2020-07-10_11h51.39.253,terkepesz_online,2020.1.3,Win32,60,,,,,,,,,,,,,,,f,,,,,,,,OLP,2,stimuli/fractals/121a.jpg,-75,225,1000,,0.821935,,,0,82,82,82,1,83,1,0,stimuli/fractals/121b.jpg,stimuli/fractals/121a.jpg,stimuli/fractals/121c.jpg,-75,225,75,225,-75,75,375,-225,,,,,,,,,,,,,,,,,,,,,,,,,,,,,,,,,,,,,,,,,,,,,,,,,,,,,,,,,,,,,,,,,,,,,,,,,,,,,,,,,,,,,,,,
,,,,,,,,,,,,,,,,,jUXDHrfV,igen,igen,2020-07-10_11h51.39.253,terkepesz_online,2020.1.3,Win32,60,,,,,,,,,,,,,,,f,,,,,,,,BL,0,stimuli/fractals/64a.jpg,225,-75,3000,,0.571265,,,0,83,83,83,1,84,1,0,stimuli/fractals/64a.jpg,stimuli/fractals/64b.jpg,stimuli/fractals/64c.jpg,225,-75,225,75,75,-75,-375,-225,,,,,,,,,,,,,,,,,,,,,,,,,,,,,,,,,,,,,,,,,,,,,,,,,,,,,,,,,,,,,,,,,,,,,,,,,,,,,,,,,,,,,,,,
,,d,0,10.78641,right,,,,,,"Mit gondol, ebben a körben milyen arányban tudott figyelni a képek helyére? Kérjük, válaszoljon őszintén. Válasza a vizsgálat bejefezésével járó jutalom (kredit, ajándékutalvány) értékét nem befolyásolja.",D: 0-24%    F: 25-49%    J: 50-74%    K: 75-100%,k,Köszönjük!,"Kevesebb, mint 75%-ban tudott a képek helyszínére figyelni.","Kérjük, próbáljon meg a továbbiakban figyelni a képek helyszínére. ",jUXDHrfV,igen,igen,2020-07-10_11h51.39.253,terkepesz_online,2020.1.3,Win32,60,,,,,,,,,,,,,,,,,,,,,,,,,,,,,,,,,,,,,,,,,,,,,,,,,,,,,9.498995,0,0,0,1,1,,,,,,,,,,,,,,,,,,,,,,,,,,,,,,,,,,,,,,,,,,,,,,,,,,,,,,,,,,,,,,,,,,,,,,,,,,,,,,,,,
,,d,0,8.785745,right,,,,,,"Mit gondol, ebben a körben milyen arányban tudott figyelni a képekre? Kérjük, válaszoljon őszintén. Válasza a vizsgálat bejefezésével járó jutalom (kredit, ajándékutalvány) értékét nem befolyásolja.",D: 0-24%    F: 25-49%    J: 50-74%    K: 75-100%,k,Köszönjük!,"Kevesebb, mint 75%-ban tudott a képekre figyelni.","Kérjük, próbáljon meg a továbbiakban figyelni a képekre. ",jUXDHrfV,igen,igen,2020-07-10_11h51.39.253,terkepesz_online,2020.1.3,Win32,60,,,,,,,,,,,,,,,,,,,,,,,,,,,,,,,,,,,,,,,,,,,,,,,,,,,,,2.886545,0,1,1,0,1,,,,,,,,,,,,,,,,,,,,,,,,,,,,,,,,,,,,,,,,,,,,,,,,,,,,,,,,,,,,,,,,,,,,,,,,,,,,,,,,,
,,,,,,,,,,,,,,,,,jUXDHrfV,igen,igen,2020-07-10_11h51.39.253,terkepesz_online,2020.1.3,Win32,60,,,,,,,,,,,,,,,,,,,,,,,,,,,,,,,,,,,,,,,,,,,,,,,,,,,,,,,,,,,right,22.15245,0,0,0,0,1,,,,,,,,,,,,,,,,,,,,,,,,,,,,,,,,,,,,,,,,,,,,,,,,,,,,,,,,,,,,,,,,,,,,,,,,,,
,,,,,,,,,,,,,,,,,jUXDHrfV,igen,igen,2020-07-10_11h51.39.253,terkepesz_online,2020.1.3,Win32,60,,,,,,,,,,,,,,,j,,,,,,,,LLP,1,stimuli/fractals/105c.jpg,225,75,500,,1.74412,,,0,0,0,0,1,85,2,1,stimuli/fractals/105c.jpg,stimuli/fractals/105a.jpg,stimuli/fractals/105b.jpg,225,75,225,225,375,75,-225,-225,,,,,,,,,,,,,,,,,,,,,,,,,,,,,,,,,,,,,,,,,,,,,,,,,,,,,,,,,,,,,,,,,,,,,,,,,,,,,,,,,,,,,,,,
,,,,,,,,,,,,,,,,,jUXDHrfV,igen,igen,2020-07-10_11h51.39.253,terkepesz_online,2020.1.3,Win32,60,,,,,,,,,,,,,,,f,,,,,,,,OLP,1,stimuli/fractals/26b.jpg,-225,225,3000,,1.862565,,,0,1,1,1,1,86,2,2,stimuli/fractals/26b.jpg,stimuli/fractals/26a.jpg,stimuli/fractals/26c.jpg,-225,225,-375,225,-225,75,75,-225,,,,,,,,,,,,,,,,,,,,,,,,,,,,,,,,,,,,,,,,,,,,,,,,,,,,,,,,,,,,,,,,,,,,,,,,,,,,,,,,,,,,,,,,
,,,,,,,,,,,,,,,,,jUXDHrfV,igen,igen,2020-07-10_11h51.39.253,terkepesz_online,2020.1.3,Win32,60,,,,,,,,,,,,,,,j,,,,,,,,LLP,2,stimuli/fractals/105c.jpg,225,225,2000,,0.6515,,,0,2,2,2,1,87,2,0,stimuli/fractals/105c.jpg,stimuli/fractals/105a.jpg,stimuli/fractals/105b.jpg,225,75,225,225,375,75,-225,-225,,,,,,,,,,,,,,,,,,,,,,,,,,,,,,,,,,,,,,,,,,,,,,,,,,,,,,,,,,,,,,,,,,,,,,,,,,,,,,,,,,,,,,,,
,,,,,,,,,,,,,,,,,jUXDHrfV,igen,igen,2020-07-10_11h51.39.253,terkepesz_online,2020.1.3,Win32,60,,,,,,,,,,,,,,,f,,,,,,,,OLP,1,stimuli/fractals/44c.jpg,-75,-75,3000,,0.90413,,,0,3,3,3,1,88,2,1,stimuli/fractals/44c.jpg,stimuli/fractals/44a.jpg,stimuli/fractals/44b.jpg,-75,-75,-75,75,-75,-225,375,225,,,,,,,,,,,,,,,,,,,,,,,,,,,,,,,,,,,,,,,,,,,,,,,,,,,,,,,,,,,,,,,,,,,,,,,,,,,,,,,,,,,,,,,,
,,,,,,,,,,,,,,,,,jUXDHrfV,igen,igen,2020-07-10_11h51.39.253,terkepesz_online,2020.1.3,Win32,60,,,,,,,,,,,,,,,j,,,,,,,,OLP,2,stimuli/fractals/26a.jpg,-225,225,3000,,2.08708,,,0,4,4,4,1,89,2,0,stimuli/fractals/26b.jpg,stimuli/fractals/26a.jpg,stimuli/fractals/26c.jpg,-225,225,-375,225,-225,75,75,-225,,,,,,,,,,,,,,,,,,,,,,,,,,,,,,,,,,,,,,,,,,,,,,,,,,,,,,,,,,,,,,,,,,,,,,,,,,,,,,,,,,,,,,,,
,,,,,,,,,,,,,,,,,jUXDHrfV,igen,igen,2020-07-10_11h51.39.253,terkepesz_online,2020.1.3,Win32,60,,,,,,,,,,,,,,,f,,,,,,,,OLP,2,stimuli/fractals/44a.jpg,-75,-75,4000,,0.86153,,,0,5,5,5,1,90,2,0,stimuli/fractals/44c.jpg,stimuli/fractals/44a.jpg,stimuli/fractals/44b.jpg,-75,-75,-75,75,-75,-225,375,225,,,,,,,,,,,,,,,,,,,,,,,,,,,,,,,,,,,,,,,,,,,,,,,,,,,,,,,,,,,,,,,,,,,,,,,,,,,,,,,,,,,,,,,,
,,,,,,,,,,,,,,,,,jUXDHrfV,igen,igen,2020-07-10_11h51.39.253,terkepesz_online,2020.1.3,Win32,60,,,,,,,,,,,,,,,j,,,,,,,,ERP,1,stimuli/fractals/144b.jpg,-375,75,3000,,1.23395,,,0,6,6,6,1,91,2,3,stimuli/fractals/144b.jpg,stimuli/fractals/144a.jpg,stimuli/fractals/144c.jpg,-375,75,-375,225,-225,75,225,-225,,,,,,,,,,,,,,,,,,,,,,,,,,,,,,,,,,,,,,,,,,,,,,,,,,,,,,,,,,,,,,,,,,,,,,,,,,,,,,,,,,,,,,,,
,,,,,,,,,,,,,,,,,jUXDHrfV,igen,igen,2020-07-10_11h51.39.253,terkepesz_online,2020.1.3,Win32,60,,,,,,,,,,,,,,,f,,,,,,,,ERP,1,stimuli/fractals/55b.jpg,225,75,2000,,0.8667,,,0,7,7,7,1,92,2,3,stimuli/fractals/55b.jpg,stimuli/fractals/55c.jpg,stimuli/fractals/55a.jpg,225,75,225,225,375,75,-375,-75,,,,,,,,,,,,,,,,,,,,,,,,,,,,,,,,,,,,,,,,,,,,,,,,,,,,,,,,,,,,,,,,,,,,,,,,,,,,,,,,,,,,,,,,
,,,,,,,,,,,,,,,,,jUXDHrfV,igen,igen,2020-07-10_11h51.39.253,terkepesz_online,2020.1.3,Win32,60,,,,,,,,,,,,,,,f,,,,,,,,OLP,1,stimuli/fractals/30a.jpg,-75,-225,8000,,0.88316,,,0,8,8,8,1,93,2,5,stimuli/fractals/30a.jpg,stimuli/fractals/30c.jpg,stimuli/fractals/30b.jpg,-75,-225,75,-225,-225,-225,-375,225,,,,,,,,,,,,,,,,,,,,,,,,,,,,,,,,,,,,,,,,,,,,,,,,,,,,,,,,,,,,,,,,,,,,,,,,,,,,,,,,,,,,,,,,
,,,,,,,,,,,,,,,,,jUXDHrfV,igen,igen,2020-07-10_11h51.39.253,terkepesz_online,2020.1.3,Win32,60,,,,,,,,,,,,,,,f,,,,,,,,LLP,1,stimuli/fractals/72a.jpg,-375,225,1000,,1.164715,,,0,9,9,9,1,94,2,5,stimuli/fractals/72a.jpg,stimuli/fractals/72b.jpg,stimuli/fractals/72c.jpg,-375,225,-375,75,-225,225,375,-225,,,,,,,,,,,,,,,,,,,,,,,,,,,,,,,,,,,,,,,,,,,,,,,,,,,,,,,,,,,,,,,,,,,,,,,,,,,,,,,,,,,,,,,,
,,,,,,,,,,,,,,,,,jUXDHrfV,igen,igen,2020-07-10_11h51.39.253,terkepesz_online,2020.1.3,Win32,60,,,,,,,,,,,,,,,j,,,,,,,,ERP,2,stimuli/fractals/144b.jpg,-375,75,500,,1.517235,,,0,10,10,10,1,95,2,0,stimuli/fractals/144b.jpg,stimuli/fractals/144a.jpg,stimuli/fractals/144c.jpg,-375,75,-375,225,-225,75,225,-225,,,,,,,,,,,,,,,,,,,,,,,,,,,,,,,,,,,,,,,,,,,,,,,,,,,,,,,,,,,,,,,,,,,,,,,,,,,,,,,,,,,,,,,,
,,,,,,,,,,,,,,,,,jUXDHrfV,igen,igen,2020-07-10_11h51.39.253,terkepesz_online,2020.1.3,Win32,60,,,,,,,,,,,,,,,j,,,,,,,,ERP,2,stimuli/fractals/55b.jpg,225,75,2000,,2.36653,,,0,11,11,11,1,96,2,0,stimuli/fractals/55b.jpg,stimuli/fractals/55c.jpg,stimuli/fractals/55a.jpg,225,75,225,225,375,75,-375,-75,,,,,,,,,,,,,,,,,,,,,,,,,,,,,,,,,,,,,,,,,,,,,,,,,,,,,,,,,,,,,,,,,,,,,,,,,,,,,,,,,,,,,,,,
,,,,,,,,,,,,,,,,,jUXDHrfV,igen,igen,2020-07-10_11h51.39.253,terkepesz_online,2020.1.3,Win32,60,,,,,,,,,,,,,,,f,,,,,,,,LLP,1,stimuli/fractals/83c.jpg,225,75,2000,,1.425445,,,0,12,12,12,1,97,2,4,stimuli/fractals/83c.jpg,stimuli/fractals/83a.jpg,stimuli/fractals/83b.jpg,225,75,75,75,225,225,-225,-225,,,,,,,,,,,,,,,,,,,,,,,,,,,,,,,,,,,,,,,,,,,,,,,,,,,,,,,,,,,,,,,,,,,,,,,,,,,,,,,,,,,,,,,,
,,,,,,,,,,,,,,,,,jUXDHrfV,igen,igen,2020-07-10_11h51.39.253,terkepesz_online,2020.1.3,Win32,60,,,,,,,,,,,,,,,f,,,,,,,,ERP,1,stimuli/fractals/66a.jpg,375,75,6000,,0.74864,,,0,13,13,13,1,98,2,4,stimuli/fractals/66a.jpg,stimuli/fractals/66c.jpg,stimuli/fractals/66b.jpg,375,75,375,-75,225,75,-375,-225,,,,,,,,,,,,,,,,,,,,,,,,,,,,,,,,,,,,,,,,,,,,,,,,,,,,,,,,,,,,,,,,,,,,,,,,,,,,,,,,,,,,,,,,
,,,,,,,,,,,,,,,,,jUXDHrfV,igen,igen,2020-07-10_11h51.39.253,terkepesz_online,2020.1.3,Win32,60,,,,,,,,,,,,,,,f,,,,,,,,OLP,2,stimuli/fractals/30c.jpg,-75,-225,4000,,0.639115,,,0,14,14,14,1,99,2,0,stimuli/fractals/30a.jpg,stimuli/fractals/30c.jpg,stimuli/fractals/30b.jpg,-75,-225,75,-225,-225,-225,-375,225,,,,,,,,,,,,,,,,,,,,,,,,,,,,,,,,,,,,,,,,,,,,,,,,,,,,,,,,,,,,,,,,,,,,,,,,,,,,,,,,,,,,,,,,
,,,,,,,,,,,,,,,,,jUXDHrfV,igen,igen,2020-07-10_11h51.39.253,terkepesz_online,2020.1.3,Win32,60,,,,,,,,,,,,,,,f,,,,,,,,LLP,2,stimuli/fractals/72a.jpg,-375,75,3000,,1.75385,,,0,15,15,15,1,100,2,0,stimuli/fractals/72a.jpg,stimuli/fractals/72b.jpg,stimuli/fractals/72c.jpg,-375,225,-375,75,-225,225,375,-225,,,,,,,,,,,,,,,,,,,,,,,,,,,,,,,,,,,,,,,,,,,,,,,,,,,,,,,,,,,,,,,,,,,,,,,,,,,,,,,,,,,,,,,,
,,,,,,,,,,,,,,,,,jUXDHrfV,igen,igen,2020-07-10_11h51.39.253,terkepesz_online,2020.1.3,Win32,60,,,,,,,,,,,,,,,f,,,,,,,,LLP,1,stimuli/fractals/76a.jpg,225,-75,6000,,0.640855,,,0,16,16,16,1,101,2,2,stimuli/fractals/76a.jpg,stimuli/fractals/76c.jpg,stimuli/fractals/76b.jpg,225,-75,225,75,225,-225,-375,225,,,,,,,,,,,,,,,,,,,,,,,,,,,,,,,,,,,,,,,,,,,,,,,,,,,,,,,,,,,,,,,,,,,,,,,,,,,,,,,,,,,,,,,,
,,,,,,,,,,,,,,,,,jUXDHrfV,igen,igen,2020-07-10_11h51.39.253,terkepesz_online,2020.1.3,Win32,60,,,,,,,,,,,,,,,f,,,,,,,,LLP,2,stimuli/fractals/83c.jpg,75,75,2000,,1.986625,,,0,17,17,17,1,102,2,0,stimuli/fractals/83c.jpg,stimuli/fractals/83a.jpg,stimuli/fractals/83b.jpg,225,75,75,75,225,225,-225,-225,,,,,,,,,,,,,,,,,,,,,,,,,,,,,,,,,,,,,,,,,,,,,,,,,,,,,,,,,,,,,,,,,,,,,,,,,,,,,,,,,,,,,,,,
,,,,,,,,,,,,,,,,,jUXDHrfV,igen,igen,2020-07-10_11h51.39.253,terkepesz_online,2020.1.3,Win32,60,,,,,,,,,,,,,,,f,,,,,,,,ERP,2,stimuli/fractals/66a.jpg,375,75,1000,,0.753925,,,0,18,18,18,1,103,2,0,stimuli/fractals/66a.jpg,stimuli/fractals/66c.jpg,stimuli/fractals/66b.jpg,375,75,375,-75,225,75,-375,-225,,,,,,,,,,,,,,,,,,,,,,,,,,,,,,,,,,,,,,,,,,,,,,,,,,,,,,,,,,,,,,,,,,,,,,,,,,,,,,,,,,,,,,,,
,,,,,,,,,,,,,,,,,jUXDHrfV,igen,igen,2020-07-10_11h51.39.253,terkepesz_online,2020.1.3,Win32,60,,,,,,,,,,,,,,,f,,,,,,,,LLP,2,stimuli/fractals/76a.jpg,225,75,3000,,0.65864,,,0,19,19,19,1,104,2,0,stimuli/fractals/76a.jpg,stimuli/fractals/76c.jpg,stimuli/fractals/76b.jpg,225,-75,225,75,225,-225,-375,225,,,,,,,,,,,,,,,,,,,,,,,,,,,,,,,,,,,,,,,,,,,,,,,,,,,,,,,,,,,,,,,,,,,,,,,,,,,,,,,,,,,,,,,,
,,,,,,,,,,,,,,,,,jUXDHrfV,igen,igen,2020-07-10_11h51.39.253,terkepesz_online,2020.1.3,Win32,60,,,,,,,,,,,,,,,f,,,,,,,,BL,0,stimuli/fractals/64a.jpg,225,-75,1000,,1.82346,,,0,20,20,20,1,105,2,0,stimuli/fractals/64a.jpg,stimuli/fractals/64b.jpg,stimuli/fractals/64c.jpg,225,-75,225,75,75,-75,-375,-225,,,,,,,,,,,,,,,,,,,,,,,,,,,,,,,,,,,,,,,,,,,,,,,,,,,,,,,,,,,,,,,,,,,,,,,,,,,,,,,,,,,,,,,,
,,,,,,,,,,,,,,,,,jUXDHrfV,igen,igen,2020-07-10_11h51.39.253,terkepesz_online,2020.1.3,Win32,60,,,,,,,,,,,,,,,f,,,,,,,,ERP,1,stimuli/fractals/77a.jpg,225,-225,1000,,0.821905,,,0,21,21,21,1,106,2,4,stimuli/fractals/77a.jpg,stimuli/fractals/77c.jpg,stimuli/fractals/77b.jpg,225,-225,75,-225,225,-75,-375,75,,,,,,,,,,,,,,,,,,,,,,,,,,,,,,,,,,,,,,,,,,,,,,,,,,,,,,,,,,,,,,,,,,,,,,,,,,,,,,,,,,,,,,,,
,,,,,,,,,,,,,,,,,jUXDHrfV,igen,igen,2020-07-10_11h51.39.253,terkepesz_online,2020.1.3,Win32,60,,,,,,,,,,,,,,,j,,,,,,,,OLP,1,stimuli/fractals/38a.jpg,-225,75,1000,,0.933875,,,0,22,22,22,1,107,2,5,stimuli/fractals/38a.jpg,stimuli/fractals/38b.jpg,stimuli/fractals/38c.jpg,-225,75,-375,75,-75,75,225,-225,,,,,,,,,,,,,,,,,,,,,,,,,,,,,,,,,,,,,,,,,,,,,,,,,,,,,,,,,,,,,,,,,,,,,,,,,,,,,,,,,,,,,,,,
,,,,,,,,,,,,,,,,,jUXDHrfV,igen,igen,2020-07-10_11h51.39.253,terkepesz_online,2020.1.3,Win32,60,,,,,,,,,,,,,,,f,,,,,,,,LLP,1,stimuli/fractals/5c.jpg,375,-225,5000,,1.684465,,,0,23,23,23,1,108,2,5,stimuli/fractals/5c.jpg,stimuli/fractals/5b.jpg,stimuli/fractals/5a.jpg,375,-225,375,-75,225,-225,-375,225,,,,,,,,,,,,,,,,,,,,,,,,,,,,,,,,,,,,,,,,,,,,,,,,,,,,,,,,,,,,,,,,,,,,,,,,,,,,,,,,,,,,,,,,
,,,,,,,,,,,,,,,,,jUXDHrfV,igen,igen,2020-07-10_11h51.39.253,terkepesz_online,2020.1.3,Win32,60,,,,,,,,,,,,,,,f,,,,,,,,OLP,1,stimuli/fractals/145a.jpg,225,-75,2000,,1.00455,,,0,24,24,24,1,109,2,2,stimuli/fractals/145a.jpg,stimuli/fractals/145b.jpg,stimuli/fractals/145c.jpg,225,-75,225,-225,75,-75,-375,-225,,,,,,,,,,,,,,,,,,,,,,,,,,,,,,,,,,,,,,,,,,,,,,,,,,,,,,,,,,,,,,,,,,,,,,,,,,,,,,,,,,,,,,,,
,,,,,,,,,,,,,,,,,jUXDHrfV,igen,igen,2020-07-10_11h51.39.253,terkepesz_online,2020.1.3,Win32,60,,,,,,,,,,,,,,,j,,,,,,,,ERP,1,stimuli/fractals/40c.jpg,375,75,1000,,0.817595,,,0,25,25,25,1,110,2,4,stimuli/fractals/40c.jpg,stimuli/fractals/40b.jpg,stimuli/fractals/40a.jpg,375,75,375,-75,225,75,-225,225,,,,,,,,,,,,,,,,,,,,,,,,,,,,,,,,,,,,,,,,,,,,,,,,,,,,,,,,,,,,,,,,,,,,,,,,,,,,,,,,,,,,,,,,
,,,,,,,,,,,,,,,,,jUXDHrfV,igen,igen,2020-07-10_11h51.39.253,terkepesz_online,2020.1.3,Win32,60,,,,,,,,,,,,,,,f,,,,,,,,ERP,2,stimuli/fractals/77a.jpg,225,-225,2000,,0.642595,,,0,26,26,26,1,111,2,0,stimuli/fractals/77a.jpg,stimuli/fractals/77c.jpg,stimuli/fractals/77b.jpg,225,-225,75,-225,225,-75,-375,75,,,,,,,,,,,,,,,,,,,,,,,,,,,,,,,,,,,,,,,,,,,,,,,,,,,,,,,,,,,,,,,,,,,,,,,,,,,,,,,,,,,,,,,,
,,,,,,,,,,,,,,,,,jUXDHrfV,igen,igen,2020-07-10_11h51.39.253,terkepesz_online,2020.1.3,Win32,60,,,,,,,,,,,,,,,f,,,,,,,,OLP,2,stimuli/fractals/145b.jpg,225,-75,5000,,0.986705,,,0,27,27,27,1,112,2,0,stimuli/fractals/145a.jpg,stimuli/fractals/145b.jpg,stimuli/fractals/145c.jpg,225,-75,225,-225,75,-75,-375,-225,,,,,,,,,,,,,,,,,,,,,,,,,,,,,,,,,,,,,,,,,,,,,,,,,,,,,,,,,,,,,,,,,,,,,,,,,,,,,,,,,,,,,,,,
,,,,,,,,,,,,,,,,,jUXDHrfV,igen,igen,2020-07-10_11h51.39.253,terkepesz_online,2020.1.3,Win32,60,,,,,,,,,,,,,,,j,,,,,,,,OLP,2,stimuli/fractals/38b.jpg,-225,75,1000,,1.045565,,,0,28,28,28,1,113,2,0,stimuli/fractals/38a.jpg,stimuli/fractals/38b.jpg,stimuli/fractals/38c.jpg,-225,75,-375,75,-75,75,225,-225,,,,,,,,,,,,,,,,,,,,,,,,,,,,,,,,,,,,,,,,,,,,,,,,,,,,,,,,,,,,,,,,,,,,,,,,,,,,,,,,,,,,,,,,
,,,,,,,,,,,,,,,,,jUXDHrfV,igen,igen,2020-07-10_11h51.39.253,terkepesz_online,2020.1.3,Win32,60,,,,,,,,,,,,,,,f,,,,,,,,LLP,2,stimuli/fractals/5c.jpg,375,-75,1000,,0.70668,,,0,29,29,29,1,114,2,0,stimuli/fractals/5c.jpg,stimuli/fractals/5b.jpg,stimuli/fractals/5a.jpg,375,-225,375,-75,225,-225,-375,225,,,,,,,,,,,,,,,,,,,,,,,,,,,,,,,,,,,,,,,,,,,,,,,,,,,,,,,,,,,,,,,,,,,,,,,,,,,,,,,,,,,,,,,,
,,,,,,,,,,,,,,,,,jUXDHrfV,igen,igen,2020-07-10_11h51.39.253,terkepesz_online,2020.1.3,Win32,60,,,,,,,,,,,,,,,j,,,,,,,,ERP,2,stimuli/fractals/40c.jpg,375,75,2000,,1.21351,,,0,30,30,30,1,115,2,0,stimuli/fractals/40c.jpg,stimuli/fractals/40b.jpg,stimuli/fractals/40a.jpg,375,75,375,-75,225,75,-225,225,,,,,,,,,,,,,,,,,,,,,,,,,,,,,,,,,,,,,,,,,,,,,,,,,,,,,,,,,,,,,,,,,,,,,,,,,,,,,,,,,,,,,,,,
,,,,,,,,,,,,,,,,,jUXDHrfV,igen,igen,2020-07-10_11h51.39.253,terkepesz_online,2020.1.3,Win32,60,,,,,,,,,,,,,,,f,,,,,,,,ERP,1,stimuli/fractals/127a.jpg,-375,75,5000,,1.083415,,,0,31,31,31,1,116,2,3,stimuli/fractals/127a.jpg,stimuli/fractals/127c.jpg,stimuli/fractals/127b.jpg,-375,75,-375,225,-375,-75,375,75,,,,,,,,,,,,,,,,,,,,,,,,,,,,,,,,,,,,,,,,,,,,,,,,,,,,,,,,,,,,,,,,,,,,,,,,,,,,,,,,,,,,,,,,
,,,,,,,,,,,,,,,,,jUXDHrfV,igen,igen,2020-07-10_11h51.39.253,terkepesz_online,2020.1.3,Win32,60,,,,,,,,,,,,,,,f,,,,,,,,LLP,1,stimuli/fractals/93c.jpg,-225,225,6000,,0.759575,,,0,32,32,32,1,117,2,1,stimuli/fractals/93c.jpg,stimuli/fractals/93a.jpg,stimuli/fractals/93b.jpg,-225,225,-225,75,-75,225,375,-75,,,,,,,,,,,,,,,,,,,,,,,,,,,,,,,,,,,,,,,,,,,,,,,,,,,,,,,,,,,,,,,,,,,,,,,,,,,,,,,,,,,,,,,,
,,,,,,,,,,,,,,,,,jUXDHrfV,igen,igen,2020-07-10_11h51.39.253,terkepesz_online,2020.1.3,Win32,60,,,,,,,,,,,,,,,f,,,,,,,,LLP,1,stimuli/fractals/9c.jpg,-375,-225,2000,,0.709085,,,0,33,33,33,1,118,2,3,stimuli/fractals/9c.jpg,stimuli/fractals/9b.jpg,stimuli/fractals/9a.jpg,-375,-225,-375,-75,-225,-225,375,-225,,,,,,,,,,,,,,,,,,,,,,,,,,,,,,,,,,,,,,,,,,,,,,,,,,,,,,,,,,,,,,,,,,,,,,,,,,,,,,,,,,,,,,,,
,,,,,,,,,,,,,,,,,jUXDHrfV,igen,igen,2020-07-10_11h51.39.253,terkepesz_online,2020.1.3,Win32,60,,,,,,,,,,,,,,,j,,,,,,,,LLP,2,stimuli/fractals/93c.jpg,-225,75,500,,1.29792,,,0,34,34,34,1,119,2,0,stimuli/fractals/93c.jpg,stimuli/fractals/93a.jpg,stimuli/fractals/93b.jpg,-225,225,-225,75,-75,225,375,-75,,,,,,,,,,,,,,,,,,,,,,,,,,,,,,,,,,,,,,,,,,,,,,,,,,,,,,,,,,,,,,,,,,,,,,,,,,,,,,,,,,,,,,,,
,,,,,,,,,,,,,,,,,jUXDHrfV,igen,igen,2020-07-10_11h51.39.253,terkepesz_online,2020.1.3,Win32,60,,,,,,,,,,,,,,,f,,,,,,,,ERP,2,stimuli/fractals/127a.jpg,-375,75,1000,,0.874435,,,0,35,35,35,1,120,2,0,stimuli/fractals/127a.jpg,stimuli/fractals/127c.jpg,stimuli/fractals/127b.jpg,-375,75,-375,225,-375,-75,375,75,,,,,,,,,,,,,,,,,,,,,,,,,,,,,,,,,,,,,,,,,,,,,,,,,,,,,,,,,,,,,,,,,,,,,,,,,,,,,,,,,,,,,,,,
,,,,,,,,,,,,,,,,,jUXDHrfV,igen,igen,2020-07-10_11h51.39.253,terkepesz_online,2020.1.3,Win32,60,,,,,,,,,,,,,,,f,,,,,,,,LLP,1,stimuli/fractals/106b.jpg,225,-75,3000,,1.456165,,,0,36,36,36,1,121,2,2,stimuli/fractals/106b.jpg,stimuli/fractals/106a.jpg,stimuli/fractals/106c.jpg,225,-75,75,-75,375,-75,-375,225,,,,,,,,,,,,,,,,,,,,,,,,,,,,,,,,,,,,,,,,,,,,,,,,,,,,,,,,,,,,,,,,,,,,,,,,,,,,,,,,,,,,,,,,
,,,,,,,,,,,,,,,,,jUXDHrfV,igen,igen,2020-07-10_11h51.39.253,terkepesz_online,2020.1.3,Win32,60,,,,,,,,,,,,,,,j,,,,,,,,LLP,2,stimuli/fractals/9c.jpg,-375,-75,1000,,1.31639,,,0,37,37,37,1,122,2,0,stimuli/fractals/9c.jpg,stimuli/fractals/9b.jpg,stimuli/fractals/9a.jpg,-375,-225,-375,-75,-225,-225,375,-225,,,,,,,,,,,,,,,,,,,,,,,,,,,,,,,,,,,,,,,,,,,,,,,,,,,,,,,,,,,,,,,,,,,,,,,,,,,,,,,,,,,,,,,,
,,,,,,,,,,,,,,,,,jUXDHrfV,igen,igen,2020-07-10_11h51.39.253,terkepesz_online,2020.1.3,Win32,60,,,,,,,,,,,,,,,f,,,,,,,,ERP,1,stimuli/fractals/58b.jpg,-375,225,2000,,0.827085,,,0,38,38,38,1,123,2,1,stimuli/fractals/58b.jpg,stimuli/fractals/58a.jpg,stimuli/fractals/58c.jpg,-375,225,-375,75,-225,225,-75,-225,,,,,,,,,,,,,,,,,,,,,,,,,,,,,,,,,,,,,,,,,,,,,,,,,,,,,,,,,,,,,,,,,,,,,,,,,,,,,,,,,,,,,,,,
,,,,,,,,,,,,,,,,,jUXDHrfV,igen,igen,2020-07-10_11h51.39.253,terkepesz_online,2020.1.3,Win32,60,,,,,,,,,,,,,,,j,,,,,,,,LLP,2,stimuli/fractals/106b.jpg,75,-75,2000,,0.801955,,,0,39,39,39,1,124,2,0,stimuli/fractals/106b.jpg,stimuli/fractals/106a.jpg,stimuli/fractals/106c.jpg,225,-75,75,-75,375,-75,-375,225,,,,,,,,,,,,,,,,,,,,,,,,,,,,,,,,,,,,,,,,,,,,,,,,,,,,,,,,,,,,,,,,,,,,,,,,,,,,,,,,,,,,,,,,
,,,,,,,,,,,,,,,,,jUXDHrfV,igen,igen,2020-07-10_11h51.39.253,terkepesz_online,2020.1.3,Win32,60,,,,,,,,,,,,,,,f,,,,,,,,ERP,2,stimuli/fractals/58b.jpg,-375,225,1000,,1.03289,,,0,40,40,40,1,125,2,0,stimuli/fractals/58b.jpg,stimuli/fractals/58a.jpg,stimuli/fractals/58c.jpg,-375,225,-375,75,-225,225,-75,-225,,,,,,,,,,,,,,,,,,,,,,,,,,,,,,,,,,,,,,,,,,,,,,,,,,,,,,,,,,,,,,,,,,,,,,,,,,,,,,,,,,,,,,,,
,,,,,,,,,,,,,,,,,jUXDHrfV,igen,igen,2020-07-10_11h51.39.253,terkepesz_online,2020.1.3,Win32,60,,,,,,,,,,,,,,,f,,,,,,,,BL,0,stimuli/fractals/64a.jpg,225,-75,1000,,0.87475,,,0,41,41,41,1,126,2,0,stimuli/fractals/64a.jpg,stimuli/fractals/64b.jpg,stimuli/fractals/64c.jpg,225,-75,225,75,75,-75,-375,-225,,,,,,,,,,,,,,,,,,,,,,,,,,,,,,,,,,,,,,,,,,,,,,,,,,,,,,,,,,,,,,,,,,,,,,,,,,,,,,,,,,,,,,,,
,,,,,,,,,,,,,,,,,jUXDHrfV,igen,igen,2020-07-10_11h51.39.253,terkepesz_online,2020.1.3,Win32,60,,,,,,,,,,,,,,,j,,,,,,,,ERP,1,stimuli/fractals/123a.jpg,375,75,500,,0.775135,,,0,42,42,42,1,127,2,1,stimuli/fractals/123a.jpg,stimuli/fractals/123b.jpg,stimuli/fractals/123c.jpg,375,75,375,225,375,-75,-375,-225,,,,,,,,,,,,,,,,,,,,,,,,,,,,,,,,,,,,,,,,,,,,,,,,,,,,,,,,,,,,,,,,,,,,,,,,,,,,,,,,,,,,,,,,
,,,,,,,,,,,,,,,,,jUXDHrfV,igen,igen,2020-07-10_11h51.39.253,terkepesz_online,2020.1.3,Win32,60,,,,,,,,,,,,,,,f,,,,,,,,OLP,1,stimuli/fractals/25c.jpg,-375,-225,3000,,0.66137,,,0,43,43,43,1,128,2,3,stimuli/fractals/25c.jpg,stimuli/fractals/25b.jpg,stimuli/fractals/25a.jpg,-375,-225,-225,-225,-375,-75,225,225,,,,,,,,,,,,,,,,,,,,,,,,,,,,,,,,,,,,,,,,,,,,,,,,,,,,,,,,,,,,,,,,,,,,,,,,,,,,,,,,,,,,,,,,
,,,,,,,,,,,,,,,,,jUXDHrfV,igen,igen,2020-07-10_11h51.39.253,terkepesz_online,2020.1.3,Win32,60,,,,,,,,,,,,,,,j,,,,,,,,ERP,2,stimuli/fractals/123a.jpg,375,75,2000,,0.888945,,,0,44,44,44,1,129,2,0,stimuli/fractals/123a.jpg,stimuli/fractals/123b.jpg,stimuli/fractals/123c.jpg,375,75,375,225,375,-75,-375,-225,,,,,,,,,,,,,,,,,,,,,,,,,,,,,,,,,,,,,,,,,,,,,,,,,,,,,,,,,,,,,,,,,,,,,,,,,,,,,,,,,,,,,,,,
,,,,,,,,,,,,,,,,,jUXDHrfV,igen,igen,2020-07-10_11h51.39.253,terkepesz_online,2020.1.3,Win32,60,,,,,,,,,,,,,,,f,,,,,,,,LLP,1,stimuli/fractals/20c.jpg,225,-75,2000,,0.838615,,,0,45,45,45,1,130,2,2,stimuli/fractals/20c.jpg,stimuli/fractals/20a.jpg,stimuli/fractals/20b.jpg,225,-75,225,75,75,-75,-225,225,,,,,,,,,,,,,,,,,,,,,,,,,,,,,,,,,,,,,,,,,,,,,,,,,,,,,,,,,,,,,,,,,,,,,,,,,,,,,,,,,,,,,,,,
,,,,,,,,,,,,,,,,,jUXDHrfV,igen,igen,2020-07-10_11h51.39.253,terkepesz_online,2020.1.3,Win32,60,,,,,,,,,,,,,,,j,,,,,,,,LLP,1,stimuli/fractals/130a.jpg,225,75,1000,,0.66965,,,0,46,46,46,1,131,2,3,stimuli/fractals/130a.jpg,stimuli/fractals/130c.jpg,stimuli/fractals/130b.jpg,225,75,75,75,375,75,-375,-75,,,,,,,,,,,,,,,,,,,,,,,,,,,,,,,,,,,,,,,,,,,,,,,,,,,,,,,,,,,,,,,,,,,,,,,,,,,,,,,,,,,,,,,,
,,,,,,,,,,,,,,,,,jUXDHrfV,igen,igen,2020-07-10_11h51.39.253,terkepesz_online,2020.1.3,Win32,60,,,,,,,,,,,,,,,f,,,,,,,,OLP,2,stimuli/fractals/25b.jpg,-375,-225,1000,,0.939705,,,0,47,47,47,1,132,2,0,stimuli/fractals/25c.jpg,stimuli/fractals/25b.jpg,stimuli/fractals/25a.jpg,-375,-225,-225,-225,-375,-75,225,225,,,,,,,,,,,,,,,,,,,,,,,,,,,,,,,,,,,,,,,,,,,,,,,,,,,,,,,,,,,,,,,,,,,,,,,,,,,,,,,,,,,,,,,,
,,,,,,,,,,,,,,,,,jUXDHrfV,igen,igen,2020-07-10_11h51.39.253,terkepesz_online,2020.1.3,Win32,60,,,,,,,,,,,,,,,j,,,,,,,,LLP,2,stimuli/fractals/20c.jpg,225,75,1000,,0.982935,,,0,48,48,48,1,133,2,0,stimuli/fractals/20c.jpg,stimuli/fractals/20a.jpg,stimuli/fractals/20b.jpg,225,-75,225,75,75,-75,-225,225,,,,,,,,,,,,,,,,,,,,,,,,,,,,,,,,,,,,,,,,,,,,,,,,,,,,,,,,,,,,,,,,,,,,,,,,,,,,,,,,,,,,,,,,
,,,,,,,,,,,,,,,,,jUXDHrfV,igen,igen,2020-07-10_11h51.39.253,terkepesz_online,2020.1.3,Win32,60,,,,,,,,,,,,,,,j,,,,,,,,ERP,1,stimuli/fractals/11a.jpg,-225,-225,3000,,0.812845,,,0,49,49,49,1,134,2,1,stimuli/fractals/11a.jpg,stimuli/fractals/11b.jpg,stimuli/fractals/11c.jpg,-225,-225,-225,-75,-75,-225,225,75,,,,,,,,,,,,,,,,,,,,,,,,,,,,,,,,,,,,,,,,,,,,,,,,,,,,,,,,,,,,,,,,,,,,,,,,,,,,,,,,,,,,,,,,
,,,,,,,,,,,,,,,,,jUXDHrfV,igen,igen,2020-07-10_11h51.39.253,terkepesz_online,2020.1.3,Win32,60,,,,,,,,,,,,,,,j,,,,,,,,LLP,2,stimuli/fractals/130a.jpg,75,75,1000,,1.10416,,,0,50,50,50,1,135,2,0,stimuli/fractals/130a.jpg,stimuli/fractals/130c.jpg,stimuli/fractals/130b.jpg,225,75,75,75,375,75,-375,-75,,,,,,,,,,,,,,,,,,,,,,,,,,,,,,,,,,,,,,,,,,,,,,,,,,,,,,,,,,,,,,,,,,,,,,,,,,,,,,,,,,,,,,,,
,,,,,,,,,,,,,,,,,jUXDHrfV,igen,igen,2020-07-10_11h51.39.253,terkepesz_online,2020.1.3,Win32,60,,,,,,,,,,,,,,,j,,,,,,,,ERP,2,stimuli/fractals/11a.jpg,-225,-225,3000,,1.00479,,,0,51,51,51,1,136,2,0,stimuli/fractals/11a.jpg,stimuli/fractals/11b.jpg,stimuli/fractals/11c.jpg,-225,-225,-225,-75,-75,-225,225,75,,,,,,,,,,,,,,,,,,,,,,,,,,,,,,,,,,,,,,,,,,,,,,,,,,,,,,,,,,,,,,,,,,,,,,,,,,,,,,,,,,,,,,,,
,,,,,,,,,,,,,,,,,jUXDHrfV,igen,igen,2020-07-10_11h51.39.253,terkepesz_online,2020.1.3,Win32,60,,,,,,,,,,,,,,,f,,,,,,,,ERP,1,stimuli/fractals/42b.jpg,-225,225,2000,,1.39602,,,0,52,52,52,1,137,2,5,stimuli/fractals/42b.jpg,stimuli/fractals/42c.jpg,stimuli/fractals/42a.jpg,-225,225,-75,225,-225,75,375,75,,,,,,,,,,,,,,,,,,,,,,,,,,,,,,,,,,,,,,,,,,,,,,,,,,,,,,,,,,,,,,,,,,,,,,,,,,,,,,,,,,,,,,,,
,,,,,,,,,,,,,,,,,jUXDHrfV,igen,igen,2020-07-10_11h51.39.253,terkepesz_online,2020.1.3,Win32,60,,,,,,,,,,,,,,,f,,,,,,,,LLP,1,stimuli/fractals/102a.jpg,75,-225,1000,,1.15428,,,0,53,53,53,1,138,2,5,stimuli/fractals/102a.jpg,stimuli/fractals/102b.jpg,stimuli/fractals/102c.jpg,75,-225,225,-225,-75,-225,-375,225,,,,,,,,,,,,,,,,,,,,,,,,,,,,,,,,,,,,,,,,,,,,,,,,,,,,,,,,,,,,,,,,,,,,,,,,,,,,,,,,,,,,,,,,
,,,,,,,,,,,,,,,,,jUXDHrfV,igen,igen,2020-07-10_11h51.39.253,terkepesz_online,2020.1.3,Win32,60,,,,,,,,,,,,,,,j,,,,,,,,LLP,1,stimuli/fractals/49a.jpg,225,225,2000,,0.836115,,,0,54,54,54,1,139,2,2,stimuli/fractals/49a.jpg,stimuli/fractals/49b.jpg,stimuli/fractals/49c.jpg,225,225,225,75,75,225,-225,-75,,,,,,,,,,,,,,,,,,,,,,,,,,,,,,,,,,,,,,,,,,,,,,,,,,,,,,,,,,,,,,,,,,,,,,,,,,,,,,,,,,,,,,,,
,,,,,,,,,,,,,,,,,jUXDHrfV,igen,igen,2020-07-10_11h51.39.253,terkepesz_online,2020.1.3,Win32,60,,,,,,,,,,,,,,,j,,,,,,,,OLP,1,stimuli/fractals/87b.jpg,-225,-225,4000,,0.990455,,,0,55,55,55,1,140,2,4,stimuli/fractals/87b.jpg,stimuli/fractals/87c.jpg,stimuli/fractals/87a.jpg,-225,-225,-225,-75,-375,-225,225,225,,,,,,,,,,,,,,,,,,,,,,,,,,,,,,,,,,,,,,,,,,,,,,,,,,,,,,,,,,,,,,,,,,,,,,,,,,,,,,,,,,,,,,,,
,,,,,,,,,,,,,,,,,jUXDHrfV,igen,igen,2020-07-10_11h51.39.253,terkepesz_online,2020.1.3,Win32,60,,,,,,,,,,,,,,,f,,,,,,,,LLP,1,stimuli/fractals/36c.jpg,75,225,1000,,1.007785,,,0,56,56,56,1,141,2,4,stimuli/fractals/36c.jpg,stimuli/fractals/36a.jpg,stimuli/fractals/36b.jpg,75,225,225,225,-75,225,-375,-225,,,,,,,,,,,,,,,,,,,,,,,,,,,,,,,,,,,,,,,,,,,,,,,,,,,,,,,,,,,,,,,,,,,,,,,,,,,,,,,,,,,,,,,,
,,,,,,,,,,,,,,,,,jUXDHrfV,igen,igen,2020-07-10_11h51.39.253,terkepesz_online,2020.1.3,Win32,60,,,,,,,,,,,,,,,j,,,,,,,,LLP,2,stimuli/fractals/49a.jpg,225,75,3000,,0.85043,,,0,57,57,57,1,142,2,0,stimuli/fractals/49a.jpg,stimuli/fractals/49b.jpg,stimuli/fractals/49c.jpg,225,225,225,75,75,225,-225,-75,,,,,,,,,,,,,,,,,,,,,,,,,,,,,,,,,,,,,,,,,,,,,,,,,,,,,,,,,,,,,,,,,,,,,,,,,,,,,,,,,,,,,,,,
,,,,,,,,,,,,,,,,,jUXDHrfV,igen,igen,2020-07-10_11h51.39.253,terkepesz_online,2020.1.3,Win32,60,,,,,,,,,,,,,,,f,,,,,,,,ERP,2,stimuli/fractals/42b.jpg,-225,225,2000,,2.935225,,,0,58,58,58,1,143,2,0,stimuli/fractals/42b.jpg,stimuli/fractals/42c.jpg,stimuli/fractals/42a.jpg,-225,225,-75,225,-225,75,375,75,,,,,,,,,,,,,,,,,,,,,,,,,,,,,,,,,,,,,,,,,,,,,,,,,,,,,,,,,,,,,,,,,,,,,,,,,,,,,,,,,,,,,,,,
,,,,,,,,,,,,,,,,,jUXDHrfV,igen,igen,2020-07-10_11h51.39.253,terkepesz_online,2020.1.3,Win32,60,,,,,,,,,,,,,,,j,,,,,,,,LLP,2,stimuli/fractals/102a.jpg,225,-225,2000,,1.311785,,,0,59,59,59,1,144,2,0,stimuli/fractals/102a.jpg,stimuli/fractals/102b.jpg,stimuli/fractals/102c.jpg,75,-225,225,-225,-75,-225,-375,225,,,,,,,,,,,,,,,,,,,,,,,,,,,,,,,,,,,,,,,,,,,,,,,,,,,,,,,,,,,,,,,,,,,,,,,,,,,,,,,,,,,,,,,,
,,,,,,,,,,,,,,,,,jUXDHrfV,igen,igen,2020-07-10_11h51.39.253,terkepesz_online,2020.1.3,Win32,60,,,,,,,,,,,,,,,f,,,,,,,,OLP,2,stimuli/fractals/87c.jpg,-225,-225,3000,,0.837605,,,0,60,60,60,1,145,2,0,stimuli/fractals/87b.jpg,stimuli/fractals/87c.jpg,stimuli/fractals/87a.jpg,-225,-225,-225,-75,-375,-225,225,225,,,,,,,,,,,,,,,,,,,,,,,,,,,,,,,,,,,,,,,,,,,,,,,,,,,,,,,,,,,,,,,,,,,,,,,,,,,,,,,,,,,,,,,,
,,,,,,,,,,,,,,,,,jUXDHrfV,igen,igen,2020-07-10_11h51.39.253,terkepesz_online,2020.1.3,Win32,60,,,,,,,,,,,,,,,j,,,,,,,,LLP,2,stimuli/fractals/36c.jpg,225,225,500,,0.678815,,,0,61,61,61,1,146,2,0,stimuli/fractals/36c.jpg,stimuli/fractals/36a.jpg,stimuli/fractals/36b.jpg,75,225,225,225,-75,225,-375,-225,,,,,,,,,,,,,,,,,,,,,,,,,,,,,,,,,,,,,,,,,,,,,,,,,,,,,,,,,,,,,,,,,,,,,,,,,,,,,,,,,,,,,,,,
,,,,,,,,,,,,,,,,,jUXDHrfV,igen,igen,2020-07-10_11h51.39.253,terkepesz_online,2020.1.3,Win32,60,,,,,,,,,,,,,,,j,,,,,,,,BL,0,stimuli/fractals/64a.jpg,225,-75,3000,,0.771435,,,0,62,62,62,1,147,2,0,stimuli/fractals/64a.jpg,stimuli/fractals/64b.jpg,stimuli/fractals/64c.jpg,225,-75,225,75,75,-75,-375,-225,,,,,,,,,,,,,,,,,,,,,,,,,,,,,,,,,,,,,,,,,,,,,,,,,,,,,,,,,,,,,,,,,,,,,,,,,,,,,,,,,,,,,,,,
,,,,,,,,,,,,,,,,,jUXDHrfV,igen,igen,2020-07-10_11h51.39.253,terkepesz_online,2020.1.3,Win32,60,,,,,,,,,,,,,,,f,,,,,,,,LLP,1,stimuli/fractals/41c.jpg,-375,-225,1000,,0.715555,,,0,63,63,63,1,148,2,3,stimuli/fractals/41c.jpg,stimuli/fractals/41b.jpg,stimuli/fractals/41a.jpg,-375,-225,-375,-75,-225,-225,375,-75,,,,,,,,,,,,,,,,,,,,,,,,,,,,,,,,,,,,,,,,,,,,,,,,,,,,,,,,,,,,,,,,,,,,,,,,,,,,,,,,,,,,,,,,
,,,,,,,,,,,,,,,,,jUXDHrfV,igen,igen,2020-07-10_11h51.39.253,terkepesz_online,2020.1.3,Win32,60,,,,,,,,,,,,,,,j,,,,,,,,OLP,1,stimuli/fractals/17a.jpg,-75,75,500,,0.821845,,,0,64,64,64,1,149,2,1,stimuli/fractals/17a.jpg,stimuli/fractals/17b.jpg,stimuli/fractals/17c.jpg,-75,75,-75,225,-75,-75,375,-225,,,,,,,,,,,,,,,,,,,,,,,,,,,,,,,,,,,,,,,,,,,,,,,,,,,,,,,,,,,,,,,,,,,,,,,,,,,,,,,,,,,,,,,,
,,,,,,,,,,,,,,,,,jUXDHrfV,igen,igen,2020-07-10_11h51.39.253,terkepesz_online,2020.1.3,Win32,60,,,,,,,,,,,,,,,j,,,,,,,,ERP,1,stimuli/fractals/115b.jpg,-75,225,1000,,0.649535,,,0,65,65,65,1,150,2,2,stimuli/fractals/115b.jpg,stimuli/fractals/115c.jpg,stimuli/fractals/115a.jpg,-75,225,-225,225,75,225,375,-225,,,,,,,,,,,,,,,,,,,,,,,,,,,,,,,,,,,,,,,,,,,,,,,,,,,,,,,,,,,,,,,,,,,,,,,,,,,,,,,,,,,,,,,,
,,,,,,,,,,,,,,,,,jUXDHrfV,igen,igen,2020-07-10_11h51.39.253,terkepesz_online,2020.1.3,Win32,60,,,,,,,,,,,,,,,j,,,,,,,,OLP,2,stimuli/fractals/17b.jpg,-75,75,2000,,0.866805,,,0,66,66,66,1,151,2,0,stimuli/fractals/17a.jpg,stimuli/fractals/17b.jpg,stimuli/fractals/17c.jpg,-75,75,-75,225,-75,-75,375,-225,,,,,,,,,,,,,,,,,,,,,,,,,,,,,,,,,,,,,,,,,,,,,,,,,,,,,,,,,,,,,,,,,,,,,,,,,,,,,,,,,,,,,,,,
,,,,,,,,,,,,,,,,,jUXDHrfV,igen,igen,2020-07-10_11h51.39.253,terkepesz_online,2020.1.3,Win32,60,,,,,,,,,,,,,,,j,,,,,,,,LLP,2,stimuli/fractals/41c.jpg,-375,-75,1000,,0.716775,,,0,67,67,67,1,152,2,0,stimuli/fractals/41c.jpg,stimuli/fractals/41b.jpg,stimuli/fractals/41a.jpg,-375,-225,-375,-75,-225,-225,375,-75,,,,,,,,,,,,,,,,,,,,,,,,,,,,,,,,,,,,,,,,,,,,,,,,,,,,,,,,,,,,,,,,,,,,,,,,,,,,,,,,,,,,,,,,
,,,,,,,,,,,,,,,,,jUXDHrfV,igen,igen,2020-07-10_11h51.39.253,terkepesz_online,2020.1.3,Win32,60,,,,,,,,,,,,,,f,j,,,,,,,,ERP,2,stimuli/fractals/115b.jpg,-75,225,4000,,0.69642,,,0,68,68,68,1,153,2,0,stimuli/fractals/115b.jpg,stimuli/fractals/115c.jpg,stimuli/fractals/115a.jpg,-75,225,-225,225,75,225,375,-225,3.13493,,,,,,,,,,,,,,,,,,,,,,,,,,,,,,,,,,,,,,,,,,,,,,,,,,,,,,,,,,,,,,,,,,,,,,,,,,,,,,,,,,,,,,,
,,,,,,,,,,,,,,,,,jUXDHrfV,igen,igen,2020-07-10_11h51.39.253,terkepesz_online,2020.1.3,Win32,60,,,,,,,,,,,,,,,j,,,,,,,,LLP,1,stimuli/fractals/54a.jpg,375,225,1000,,0.78203,,,0,69,69,69,1,154,2,3,stimuli/fractals/54a.jpg,stimuli/fractals/54c.jpg,stimuli/fractals/54b.jpg,375,225,375,75,225,225,-225,-225,,,,,,,,,,,,,,,,,,,,,,,,,,,,,,,,,,,,,,,,,,,,,,,,,,,,,,,,,,,,,,,,,,,,,,,,,,,,,,,,,,,,,,,,
,,,,,,,,,,,,,,,,,jUXDHrfV,igen,igen,2020-07-10_11h51.39.253,terkepesz_online,2020.1.3,Win32,60,,,,,,,,,,,,,,,f,,,,,,,,ERP,1,stimuli/fractals/104a.jpg,-75,225,3000,,0.968865,,,0,70,70,70,1,155,2,1,stimuli/fractals/104a.jpg,stimuli/fractals/104c.jpg,stimuli/fractals/104b.jpg,-75,225,75,225,-75,75,375,-75,,,,,,,,,,,,,,,,,,,,,,,,,,,,,,,,,,,,,,,,,,,,,,,,,,,,,,,,,,,,,,,,,,,,,,,,,,,,,,,,,,,,,,,,
,,,,,,,,,,,,,,,,,jUXDHrfV,igen,igen,2020-07-10_11h51.39.253,terkepesz_online,2020.1.3,Win32,60,,,,,,,,,,,,,,,f,,,,,,,,LLP,1,stimuli/fractals/122a.jpg,225,225,6000,,0.98793,,,0,71,71,71,1,156,2,5,stimuli/fractals/122a.jpg,stimuli/fractals/122c.jpg,stimuli/fractals/122b.jpg,225,225,375,225,75,225,-375,-225,,,,,,,,,,,,,,,,,,,,,,,,,,,,,,,,,,,,,,,,,,,,,,,,,,,,,,,,,,,,,,,,,,,,,,,,,,,,,,,,,,,,,,,,
,,,,,,,,,,,,,,,,,jUXDHrfV,igen,igen,2020-07-10_11h51.39.253,terkepesz_online,2020.1.3,Win32,60,,,,,,,,,,,,,,,f,,,,,,,,ERP,2,stimuli/fractals/104a.jpg,-75,225,4000,,0.99397,,,0,72,72,72,1,157,2,0,stimuli/fractals/104a.jpg,stimuli/fractals/104c.jpg,stimuli/fractals/104b.jpg,-75,225,75,225,-75,75,375,-75,,,,,,,,,,,,,,,,,,,,,,,,,,,,,,,,,,,,,,,,,,,,,,,,,,,,,,,,,,,,,,,,,,,,,,,,,,,,,,,,,,,,,,,,
,,,,,,,,,,,,,,,,,jUXDHrfV,igen,igen,2020-07-10_11h51.39.253,terkepesz_online,2020.1.3,Win32,60,,,,,,,,,,,,,,,j,,,,,,,,LLP,2,stimuli/fractals/54a.jpg,375,75,6000,,1.667765,,,0,73,73,73,1,158,2,0,stimuli/fractals/54a.jpg,stimuli/fractals/54c.jpg,stimuli/fractals/54b.jpg,375,225,375,75,225,225,-225,-225,,,,,,,,,,,,,,,,,,,,,,,,,,,,,,,,,,,,,,,,,,,,,,,,,,,,,,,,,,,,,,,,,,,,,,,,,,,,,,,,,,,,,,,,
,,,,,,,,,,,,,,,,,jUXDHrfV,igen,igen,2020-07-10_11h51.39.253,terkepesz_online,2020.1.3,Win32,60,,,,,,,,,,,,,,,f,,,,,,,,ERP,1,stimuli/fractals/65b.jpg,-375,-225,1000,,0.903755,,,0,74,74,74,1,159,2,4,stimuli/fractals/65b.jpg,stimuli/fractals/65a.jpg,stimuli/fractals/65c.jpg,-375,-225,-225,-225,-375,-75,75,75,,,,,,,,,,,,,,,,,,,,,,,,,,,,,,,,,,,,,,,,,,,,,,,,,,,,,,,,,,,,,,,,,,,,,,,,,,,,,,,,,,,,,,,,
,,,,,,,,,,,,,,,,,jUXDHrfV,igen,igen,2020-07-10_11h51.39.253,terkepesz_online,2020.1.3,Win32,60,,,,,,,,,,,,,,,j,,,,,,,,OLP,1,stimuli/fractals/8a.jpg,375,-225,500,,0.72627,,,0,75,75,75,1,160,2,4,stimuli/fractals/8a.jpg,stimuli/fractals/8b.jpg,stimuli/fractals/8c.jpg,375,-225,375,-75,225,-225,-375,225,,,,,,,,,,,,,,,,,,,,,,,,,,,,,,,,,,,,,,,,,,,,,,,,,,,,,,,,,,,,,,,,,,,,,,,,,,,,,,,,,,,,,,,,
,,,,,,,,,,,,,,,,,jUXDHrfV,igen,igen,2020-07-10_11h51.39.253,terkepesz_online,2020.1.3,Win32,60,,,,,,,,,,,,,,,f,,,,,,,,ERP,1,stimuli/fractals/92b.jpg,225,75,1000,,1.391065,,,0,76,76,76,1,161,2,5,stimuli/fractals/92b.jpg,stimuli/fractals/92a.jpg,stimuli/fractals/92c.jpg,225,75,225,225,375,75,-375,-225,,,,,,,,,,,,,,,,,,,,,,,,,,,,,,,,,,,,,,,,,,,,,,,,,,,,,,,,,,,,,,,,,,,,,,,,,,,,,,,,,,,,,,,,
,,,,,,,,,,,,,,,,,jUXDHrfV,igen,igen,2020-07-10_11h51.39.253,terkepesz_online,2020.1.3,Win32,60,,,,,,,,,,,,,,,f,,,,,,,,LLP,2,stimuli/fractals/122a.jpg,375,225,3000,,1.93317,,,0,77,77,77,1,162,2,0,stimuli/fractals/122a.jpg,stimuli/fractals/122c.jpg,stimuli/fractals/122b.jpg,225,225,375,225,75,225,-375,-225,,,,,,,,,,,,,,,,,,,,,,,,,,,,,,,,,,,,,,,,,,,,,,,,,,,,,,,,,,,,,,,,,,,,,,,,,,,,,,,,,,,,,,,,
,,,,,,,,,,,,,,,,,jUXDHrfV,igen,igen,2020-07-10_11h51.39.253,terkepesz_online,2020.1.3,Win32,60,,,,,,,,,,,,,,,f,,,,,,,,OLP,1,stimuli/fractals/60a.jpg,375,-225,2000,,1.04188,,,0,78,78,78,1,163,2,2,stimuli/fractals/60a.jpg,stimuli/fractals/60b.jpg,stimuli/fractals/60c.jpg,375,-225,225,-225,375,-75,-225,75,,,,,,,,,,,,,,,,,,,,,,,,,,,,,,,,,,,,,,,,,,,,,,,,,,,,,,,,,,,,,,,,,,,,,,,,,,,,,,,,,,,,,,,,
,,,,,,,,,,,,,,,,,jUXDHrfV,igen,igen,2020-07-10_11h51.39.253,terkepesz_online,2020.1.3,Win32,60,,,,,,,,,,,,,,,j,,,,,,,,ERP,2,stimuli/fractals/65b.jpg,-375,-225,500,,0.857795,,,0,79,79,79,1,164,2,0,stimuli/fractals/65b.jpg,stimuli/fractals/65a.jpg,stimuli/fractals/65c.jpg,-375,-225,-225,-225,-375,-75,75,75,,,,,,,,,,,,,,,,,,,,,,,,,,,,,,,,,,,,,,,,,,,,,,,,,,,,,,,,,,,,,,,,,,,,,,,,,,,,,,,,,,,,,,,,
,,,,,,,,,,,,,,,,,jUXDHrfV,igen,igen,2020-07-10_11h51.39.253,terkepesz_online,2020.1.3,Win32,60,,,,,,,,,,,,,,,j,,,,,,,,OLP,2,stimuli/fractals/8b.jpg,375,-225,1000,,1.424585,,,0,80,80,80,1,165,2,0,stimuli/fractals/8a.jpg,stimuli/fractals/8b.jpg,stimuli/fractals/8c.jpg,375,-225,375,-75,225,-225,-375,225,,,,,,,,,,,,,,,,,,,,,,,,,,,,,,,,,,,,,,,,,,,,,,,,,,,,,,,,,,,,,,,,,,,,,,,,,,,,,,,,,,,,,,,,
,,,,,,,,,,,,,,,,,jUXDHrfV,igen,igen,2020-07-10_11h51.39.253,terkepesz_online,2020.1.3,Win32,60,,,,,,,,,,,,,,,j,,,,,,,,OLP,2,stimuli/fractals/60b.jpg,375,-225,5000,,0.847305,,,0,81,81,81,1,166,2,0,stimuli/fractals/60a.jpg,stimuli/fractals/60b.jpg,stimuli/fractals/60c.jpg,375,-225,225,-225,375,-75,-225,75,,,,,,,,,,,,,,,,,,,,,,,,,,,,,,,,,,,,,,,,,,,,,,,,,,,,,,,,,,,,,,,,,,,,,,,,,,,,,,,,,,,,,,,,
,,,,,,,,,,,,,,,,,jUXDHrfV,igen,igen,2020-07-10_11h51.39.253,terkepesz_online,2020.1.3,Win32,60,,,,,,,,,,,,,,,f,,,,,,,,ERP,2,stimuli/fractals/92b.jpg,225,75,3000,,0.61199,,,0,82,82,82,1,167,2,0,stimuli/fractals/92b.jpg,stimuli/fractals/92a.jpg,stimuli/fractals/92c.jpg,225,75,225,225,375,75,-375,-225,,,,,,,,,,,,,,,,,,,,,,,,,,,,,,,,,,,,,,,,,,,,,,,,,,,,,,,,,,,,,,,,,,,,,,,,,,,,,,,,,,,,,,,,
,,,,,,,,,,,,,,,,,jUXDHrfV,igen,igen,2020-07-10_11h51.39.253,terkepesz_online,2020.1.3,Win32,60,,,,,,,,,,,,,,,f,,,,,,,,BL,0,stimuli/fractals/64a.jpg,225,-75,3000,,1.18378,,,0,83,83,83,1,168,2,0,stimuli/fractals/64a.jpg,stimuli/fractals/64b.jpg,stimuli/fractals/64c.jpg,225,-75,225,75,75,-75,-375,-225,,,,,,,,,,,,,,,,,,,,,,,,,,,,,,,,,,,,,,,,,,,,,,,,,,,,,,,,,,,,,,,,,,,,,,,,,,,,,,,,,,,,,,,,
,,f,0,9.436225,right,,,,,,"Mit gondol, ebben a körben milyen arányban tudott figyelni a képekre? Kérjük, válaszoljon őszintén. Válasza a vizsgálat bejefezésével járó jutalom (kredit, ajándékutalvány) értékét nem befolyásolja.",D: 0-24%    F: 25-49%    J: 50-74%    K: 75-100%,k,Köszönjük!,"Kevesebb, mint 75%-ban tudott a képekre figyelni.","Kérjük, próbáljon meg a továbbiakban figyelni a képekre. ",jUXDHrfV,igen,igen,2020-07-10_11h51.39.253,terkepesz_online,2020.1.3,Win32,60,,,,,,,,,,,,,,,,,,,,,,,,,,,,,,,,,,,,,,,,,,,,,,,,,,,,,4.171885,0,0,0,0,1,,,,,,,,,,,,,,,,,,,,,,,,,,,,,,,,,,,,,,,,,,,,,,,,,,,,,,,,,,,,,,,,,,,,,,,,,,,,,,,,,
,,f,0,7.67847,right,,,,,,"Mit gondol, ebben a körben milyen arányban tudott figyelni a képek helyére? Kérjük, válaszoljon őszintén. Válasza a vizsgálat bejefezésével járó jutalom (kredit, ajándékutalvány) értékét nem befolyásolja.",D: 0-24%    F: 25-49%    J: 50-74%    K: 75-100%,k,Köszönjük!,"Kevesebb, mint 75%-ban tudott a képek helyszínére figyelni.","Kérjük, próbáljon meg a továbbiakban figyelni a képek helyszínére. ",jUXDHrfV,igen,igen,2020-07-10_11h51.39.253,terkepesz_online,2020.1.3,Win32,60,,,,,,,,,,,,,,,,,,,,,,,,,,,,,,,,,,,,,,,,,,,,,,,,,,,,,2.15219,0,1,1,1,1,,,,,,,,,,,,,,,,,,,,,,,,,,,,,,,,,,,,,,,,,,,,,,,,,,,,,,,,,,,,,,,,,,,,,,,,,,,,,,,,,
,,,,,,,,,,,,,,,,,jUXDHrfV,igen,igen,2020-07-10_11h51.39.253,terkepesz_online,2020.1.3,Win32,60,,,,,,,,,,,,,,,,,,,,,,,,,,,,,,,,,,,,,,,,,,,,,,,,,,,,,,,,,,,right,56.204825,1,0,1,0,1,,,,,,,,,,,,,,,,,,,,,,,,,,,,,,,,,,,,,,,,,,,,,,,,,,,,,,,,,,,,,,,,,,,,,,,,,,
,,,,,,,,,,,,,,,,,jUXDHrfV,igen,igen,2020-07-10_11h51.39.253,terkepesz_online,2020.1.3,Win32,60,,,,,,,,,,,,,,,f,,,,,,,,LLP,1,stimuli/fractals/35c.jpg,-225,-225,1000,,1.468015,,,0,0,0,0,1,169,3,1,stimuli/fractals/35c.jpg,stimuli/fractals/35a.jpg,stimuli/fractals/35b.jpg,-225,-225,-225,-75,-75,-225,225,225,,,,,,,,,,,,,,,,,,,,,,,,,,,,,,,,,,,,,,,,,,,,,,,,,,,,,,,,,,,,,,,,,,,,,,,,,,,,,,,,,,,,,,,,
,,,,,,,,,,,,,,,,,jUXDHrfV,igen,igen,2020-07-10_11h51.39.253,terkepesz_online,2020.1.3,Win32,60,,,,,,,,,,,,,,,j,,,,,,,,LLP,1,stimuli/fractals/4c.jpg,-225,75,4000,,0.72426,,,0,1,1,1,1,170,3,4,stimuli/fractals/4c.jpg,stimuli/fractals/4a.jpg,stimuli/fractals/4b.jpg,-225,75,-225,-75,-375,75,375,-225,,,,,,,,,,,,,,,,,,,,,,,,,,,,,,,,,,,,,,,,,,,,,,,,,,,,,,,,,,,,,,,,,,,,,,,,,,,,,,,,,,,,,,,,
,,,,,,,,,,,,,,,,,jUXDHrfV,igen,igen,2020-07-10_11h51.39.253,terkepesz_online,2020.1.3,Win32,60,,,,,,,,,,,,,,,f,,,,,,,,LLP,2,stimuli/fractals/35c.jpg,-225,-75,5000,,1.62302,,,0,2,2,2,1,171,3,0,stimuli/fractals/35c.jpg,stimuli/fractals/35a.jpg,stimuli/fractals/35b.jpg,-225,-225,-225,-75,-75,-225,225,225,,,,,,,,,,,,,,,,,,,,,,,,,,,,,,,,,,,,,,,,,,,,,,,,,,,,,,,,,,,,,,,,,,,,,,,,,,,,,,,,,,,,,,,,
,,,,,,,,,,,,,,,,,jUXDHrfV,igen,igen,2020-07-10_11h51.39.253,terkepesz_online,2020.1.3,Win32,60,,,,,,,,,,,,,,,j,,,,,,,,LLP,1,stimuli/fractals/13a.jpg,375,-75,3000,,0.602315,,,0,3,3,3,1,172,3,3,stimuli/fractals/13a.jpg,stimuli/fractals/13b.jpg,stimuli/fractals/13c.jpg,375,-75,225,-75,375,75,-375,225,,,,,,,,,,,,,,,,,,,,,,,,,,,,,,,,,,,,,,,,,,,,,,,,,,,,,,,,,,,,,,,,,,,,,,,,,,,,,,,,,,,,,,,,
,,,,,,,,,,,,,,,,,jUXDHrfV,igen,igen,2020-07-10_11h51.39.253,terkepesz_online,2020.1.3,Win32,60,,,,,,,,,,,,,,,f,,,,,,,,LLP,1,stimuli/fractals/138b.jpg,375,225,1000,,0.910605,,,0,4,4,4,1,173,3,3,stimuli/fractals/138b.jpg,stimuli/fractals/138c.jpg,stimuli/fractals/138a.jpg,375,225,375,75,225,225,-375,-225,,,,,,,,,,,,,,,,,,,,,,,,,,,,,,,,,,,,,,,,,,,,,,,,,,,,,,,,,,,,,,,,,,,,,,,,,,,,,,,,,,,,,,,,
,,,,,,,,,,,,,,,,,jUXDHrfV,igen,igen,2020-07-10_11h51.39.253,terkepesz_online,2020.1.3,Win32,60,,,,,,,,,,,,,,,f,,,,,,,,ERP,1,stimuli/fractals/109b.jpg,375,-75,4000,,0.76594,,,0,5,5,5,1,174,3,4,stimuli/fractals/109b.jpg,stimuli/fractals/109a.jpg,stimuli/fractals/109c.jpg,375,-75,225,-75,375,75,-225,225,,,,,,,,,,,,,,,,,,,,,,,,,,,,,,,,,,,,,,,,,,,,,,,,,,,,,,,,,,,,,,,,,,,,,,,,,,,,,,,,,,,,,,,,
,,,,,,,,,,,,,,,,,jUXDHrfV,igen,igen,2020-07-10_11h51.39.253,terkepesz_online,2020.1.3,Win32,60,,,,,,,,,,,,,,,j,,,,,,,,LLP,2,stimuli/fractals/4c.jpg,-225,-75,2000,,0.989525,,,0,6,6,6,1,175,3,0,stimuli/fractals/4c.jpg,stimuli/fractals/4a.jpg,stimuli/fractals/4b.jpg,-225,75,-225,-75,-375,75,375,-225,,,,,,,,,,,,,,,,,,,,,,,,,,,,,,,,,,,,,,,,,,,,,,,,,,,,,,,,,,,,,,,,,,,,,,,,,,,,,,,,,,,,,,,,
,,,,,,,,,,,,,,,,,jUXDHrfV,igen,igen,2020-07-10_11h51.39.253,terkepesz_online,2020.1.3,Win32,60,,,,,,,,,,,,,,,j,,,,,,,,LLP,2,stimuli/fractals/13a.jpg,225,-75,500,,0.97976,,,0,7,7,7,1,176,3,0,stimuli/fractals/13a.jpg,stimuli/fractals/13b.jpg,stimuli/fractals/13c.jpg,375,-75,225,-75,375,75,-375,225,,,,,,,,,,,,,,,,,,,,,,,,,,,,,,,,,,,,,,,,,,,,,,,,,,,,,,,,,,,,,,,,,,,,,,,,,,,,,,,,,,,,,,,,
,,,,,,,,,,,,,,,,,jUXDHrfV,igen,igen,2020-07-10_11h51.39.253,terkepesz_online,2020.1.3,Win32,60,,,,,,,,,,,,,,,f,,,,,,,,LLP,2,stimuli/fractals/138b.jpg,375,75,1000,,0.774525,,,0,8,8,8,1,177,3,0,stimuli/fractals/138b.jpg,stimuli/fractals/138c.jpg,stimuli/fractals/138a.jpg,375,225,375,75,225,225,-375,-225,,,,,,,,,,,,,,,,,,,,,,,,,,,,,,,,,,,,,,,,,,,,,,,,,,,,,,,,,,,,,,,,,,,,,,,,,,,,,,,,,,,,,,,,
,,,,,,,,,,,,,,,,,jUXDHrfV,igen,igen,2020-07-10_11h51.39.253,terkepesz_online,2020.1.3,Win32,60,,,,,,,,,,,,,,,j,,,,,,,,LLP,1,stimuli/fractals/68b.jpg,-225,75,2000,,1.776375,,,0,9,9,9,1,178,3,5,stimuli/fractals/68b.jpg,stimuli/fractals/68c.jpg,stimuli/fractals/68a.jpg,-225,75,-225,-75,-375,75,225,-225,,,,,,,,,,,,,,,,,,,,,,,,,,,,,,,,,,,,,,,,,,,,,,,,,,,,,,,,,,,,,,,,,,,,,,,,,,,,,,,,,,,,,,,,
,,,,,,,,,,,,,,,,,jUXDHrfV,igen,igen,2020-07-10_11h51.39.253,terkepesz_online,2020.1.3,Win32,60,,,,,,,,,,,,,,,f,,,,,,,,ERP,2,stimuli/fractals/109b.jpg,375,-75,8000,,0.71093,,,0,10,10,10,1,179,3,0,stimuli/fractals/109b.jpg,stimuli/fractals/109a.jpg,stimuli/fractals/109c.jpg,375,-75,225,-75,375,75,-225,225,,,,,,,,,,,,,,,,,,,,,,,,,,,,,,,,,,,,,,,,,,,,,,,,,,,,,,,,,,,,,,,,,,,,,,,,,,,,,,,,,,,,,,,,
,,,,,,,,,,,,,,,,,jUXDHrfV,igen,igen,2020-07-10_11h51.39.253,terkepesz_online,2020.1.3,Win32,60,,,,,,,,,,,,,,,f,,,,,,,,LLP,1,stimuli/fractals/108c.jpg,225,225,4000,,1.167485,,,0,11,11,11,1,180,3,1,stimuli/fractals/108c.jpg,stimuli/fractals/108b.jpg,stimuli/fractals/108a.jpg,225,225,375,225,225,75,-225,-75,,,,,,,,,,,,,,,,,,,,,,,,,,,,,,,,,,,,,,,,,,,,,,,,,,,,,,,,,,,,,,,,,,,,,,,,,,,,,,,,,,,,,,,,
,,,,,,,,,,,,,,,,,jUXDHrfV,igen,igen,2020-07-10_11h51.39.253,terkepesz_online,2020.1.3,Win32,60,,,,,,,,,,,,,,,f,,,,,,,,LLP,1,stimuli/fractals/21a.jpg,-225,-75,7000,,1.046185,,,0,12,12,12,1,181,3,5,stimuli/fractals/21a.jpg,stimuli/fractals/21b.jpg,stimuli/fractals/21c.jpg,-225,-75,-225,75,-75,-75,375,75,,,,,,,,,,,,,,,,,,,,,,,,,,,,,,,,,,,,,,,,,,,,,,,,,,,,,,,,,,,,,,,,,,,,,,,,,,,,,,,,,,,,,,,,
,,,,,,,,,,,,,,,,,jUXDHrfV,igen,igen,2020-07-10_11h51.39.253,terkepesz_online,2020.1.3,Win32,60,,,,,,,,,,,,,,,f,,,,,,,,LLP,2,stimuli/fractals/108c.jpg,375,225,3000,,1.63091,,,0,13,13,13,1,182,3,0,stimuli/fractals/108c.jpg,stimuli/fractals/108b.jpg,stimuli/fractals/108a.jpg,225,225,375,225,225,75,-225,-75,,,,,,,,,,,,,,,,,,,,,,,,,,,,,,,,,,,,,,,,,,,,,,,,,,,,,,,,,,,,,,,,,,,,,,,,,,,,,,,,,,,,,,,,
,,,,,,,,,,,,,,,,,jUXDHrfV,igen,igen,2020-07-10_11h51.39.253,terkepesz_online,2020.1.3,Win32,60,,,,,,,,,,,,,,,f,,,,,,,,OLP,1,stimuli/fractals/86b.jpg,-225,-225,6000,,0.831365,,,0,14,14,14,1,183,3,2,stimuli/fractals/86b.jpg,stimuli/fractals/86a.jpg,stimuli/fractals/86c.jpg,-225,-225,-75,-225,-375,-225,225,225,,,,,,,,,,,,,,,,,,,,,,,,,,,,,,,,,,,,,,,,,,,,,,,,,,,,,,,,,,,,,,,,,,,,,,,,,,,,,,,,,,,,,,,,
,,,,,,,,,,,,,,,,,jUXDHrfV,igen,igen,2020-07-10_11h51.39.253,terkepesz_online,2020.1.3,Win32,60,,,,,,,,,,,,,,,j,,,,,,,,LLP,2,stimuli/fractals/68b.jpg,-225,-75,1000,,1.03481,,,0,15,15,15,1,184,3,0,stimuli/fractals/68b.jpg,stimuli/fractals/68c.jpg,stimuli/fractals/68a.jpg,-225,75,-225,-75,-375,75,225,-225,,,,,,,,,,,,,,,,,,,,,,,,,,,,,,,,,,,,,,,,,,,,,,,,,,,,,,,,,,,,,,,,,,,,,,,,,,,,,,,,,,,,,,,,
,,,,,,,,,,,,,,,,,jUXDHrfV,igen,igen,2020-07-10_11h51.39.253,terkepesz_online,2020.1.3,Win32,60,,,,,,,,,,,,,,,f,,,,,,,,LLP,1,stimuli/fractals/81b.jpg,-225,-225,6000,,0.769225,,,0,16,16,16,1,185,3,2,stimuli/fractals/81b.jpg,stimuli/fractals/81a.jpg,stimuli/fractals/81c.jpg,-225,-225,-75,-225,-375,-225,375,75,,,,,,,,,,,,,,,,,,,,,,,,,,,,,,,,,,,,,,,,,,,,,,,,,,,,,,,,,,,,,,,,,,,,,,,,,,,,,,,,,,,,,,,,
,,,,,,,,,,,,,,,,,jUXDHrfV,igen,igen,2020-07-10_11h51.39.253,terkepesz_online,2020.1.3,Win32,60,,,,,,,,,,,,,,,f,,,,,,,,OLP,2,stimuli/fractals/86a.jpg,-225,-225,500,,1.823265,,,0,17,17,17,1,186,3,0,stimuli/fractals/86b.jpg,stimuli/fractals/86a.jpg,stimuli/fractals/86c.jpg,-225,-225,-75,-225,-375,-225,225,225,,,,,,,,,,,,,,,,,,,,,,,,,,,,,,,,,,,,,,,,,,,,,,,,,,,,,,,,,,,,,,,,,,,,,,,,,,,,,,,,,,,,,,,,
,,,,,,,,,,,,,,,,,jUXDHrfV,igen,igen,2020-07-10_11h51.39.253,terkepesz_online,2020.1.3,Win32,60,,,,,,,,,,,,,,,j,,,,,,,,LLP,2,stimuli/fractals/21a.jpg,-225,75,1000,,0.76369,,,0,18,18,18,1,187,3,0,stimuli/fractals/21a.jpg,stimuli/fractals/21b.jpg,stimuli/fractals/21c.jpg,-225,-75,-225,75,-75,-75,375,75,,,,,,,,,,,,,,,,,,,,,,,,,,,,,,,,,,,,,,,,,,,,,,,,,,,,,,,,,,,,,,,,,,,,,,,,,,,,,,,,,,,,,,,,
,,,,,,,,,,,,,,,,,jUXDHrfV,igen,igen,2020-07-10_11h51.39.253,terkepesz_online,2020.1.3,Win32,60,,,,,,,,,,,,,,,f,,,,,,,,LLP,2,stimuli/fractals/81b.jpg,-75,-225,5000,,0.990765,,,0,19,19,19,1,188,3,0,stimuli/fractals/81b.jpg,stimuli/fractals/81a.jpg,stimuli/fractals/81c.jpg,-225,-225,-75,-225,-375,-225,375,75,,,,,,,,,,,,,,,,,,,,,,,,,,,,,,,,,,,,,,,,,,,,,,,,,,,,,,,,,,,,,,,,,,,,,,,,,,,,,,,,,,,,,,,,
,,,,,,,,,,,,,,,,,jUXDHrfV,igen,igen,2020-07-10_11h51.39.253,terkepesz_online,2020.1.3,Win32,60,,,,,,,,,,,,,,,f,,,,,,,,BL,0,stimuli/fractals/64a.jpg,225,-75,5000,,0.90296,,,0,20,20,20,1,189,3,0,stimuli/fractals/64a.jpg,stimuli/fractals/64b.jpg,stimuli/fractals/64c.jpg,225,-75,225,75,75,-75,-375,-225,,,,,,,,,,,,,,,,,,,,,,,,,,,,,,,,,,,,,,,,,,,,,,,,,,,,,,,,,,,,,,,,,,,,,,,,,,,,,,,,,,,,,,,,
,,,,,,,,,,,,,,,,,jUXDHrfV,igen,igen,2020-07-10_11h51.39.253,terkepesz_online,2020.1.3,Win32,60,,,,,,,,,,,,,,,j,,,,,,,,OLP,1,stimuli/fractals/1c.jpg,75,225,500,,1.434075,,,0,21,21,21,1,190,3,2,stimuli/fractals/1c.jpg,stimuli/fractals/1b.jpg,stimuli/fractals/1a.jpg,75,225,-75,225,225,225,-375,-225,,,,,,,,,,,,,,,,,,,,,,,,,,,,,,,,,,,,,,,,,,,,,,,,,,,,,,,,,,,,,,,,,,,,,,,,,,,,,,,,,,,,,,,,
,,,,,,,,,,,,,,,,,jUXDHrfV,igen,igen,2020-07-10_11h51.39.253,terkepesz_online,2020.1.3,Win32,60,,,,,,,,,,,,,,,f,,,,,,,,ERP,1,stimuli/fractals/73b.jpg,-375,-75,1000,,0.94127,,,0,22,22,22,1,191,3,5,stimuli/fractals/73b.jpg,stimuli/fractals/73c.jpg,stimuli/fractals/73a.jpg,-375,-75,-375,-225,-225,-75,375,225,,,,,,,,,,,,,,,,,,,,,,,,,,,,,,,,,,,,,,,,,,,,,,,,,,,,,,,,,,,,,,,,,,,,,,,,,,,,,,,,,,,,,,,,
,,,,,,,,,,,,,,,,,jUXDHrfV,igen,igen,2020-07-10_11h51.39.253,terkepesz_online,2020.1.3,Win32,60,,,,,,,,,,,,,,,f,,,,,,,,LLP,1,stimuli/fractals/131a.jpg,75,-75,1000,,1.428485,,,0,23,23,23,1,192,3,5,stimuli/fractals/131a.jpg,stimuli/fractals/131c.jpg,stimuli/fractals/131b.jpg,75,-75,-75,-75,75,-225,-375,225,,,,,,,,,,,,,,,,,,,,,,,,,,,,,,,,,,,,,,,,,,,,,,,,,,,,,,,,,,,,,,,,,,,,,,,,,,,,,,,,,,,,,,,,
,,,,,,,,,,,,,,,,,jUXDHrfV,igen,igen,2020-07-10_11h51.39.253,terkepesz_online,2020.1.3,Win32,60,,,,,,,,,,,,,,,f,,,,,,,,OLP,2,stimuli/fractals/1b.jpg,75,225,1000,,0.82052,,,0,24,24,24,1,193,3,0,stimuli/fractals/1c.jpg,stimuli/fractals/1b.jpg,stimuli/fractals/1a.jpg,75,225,-75,225,225,225,-375,-225,,,,,,,,,,,,,,,,,,,,,,,,,,,,,,,,,,,,,,,,,,,,,,,,,,,,,,,,,,,,,,,,,,,,,,,,,,,,,,,,,,,,,,,,
,,,,,,,,,,,,,,,,,jUXDHrfV,igen,igen,2020-07-10_11h51.39.253,terkepesz_online,2020.1.3,Win32,60,,,,,,,,,,,,,,,f,,,,,,,,OLP,1,stimuli/fractals/69c.jpg,-225,-75,2000,,0.663025,,,0,25,25,25,1,194,3,1,stimuli/fractals/69c.jpg,stimuli/fractals/69a.jpg,stimuli/fractals/69b.jpg,-225,-75,-225,75,-225,-225,375,-225,,,,,,,,,,,,,,,,,,,,,,,,,,,,,,,,,,,,,,,,,,,,,,,,,,,,,,,,,,,,,,,,,,,,,,,,,,,,,,,,,,,,,,,,
,,,,,,,,,,,,,,,,,jUXDHrfV,igen,igen,2020-07-10_11h51.39.253,terkepesz_online,2020.1.3,Win32,60,,,,,,,,,,,,,,,f,,,,,,,,OLP,1,stimuli/fractals/118b.jpg,375,75,1000,,0.863765,,,0,26,26,26,1,195,3,4,stimuli/fractals/118b.jpg,stimuli/fractals/118c.jpg,stimuli/fractals/118a.jpg,375,75,225,75,375,-75,-225,225,,,,,,,,,,,,,,,,,,,,,,,,,,,,,,,,,,,,,,,,,,,,,,,,,,,,,,,,,,,,,,,,,,,,,,,,,,,,,,,,,,,,,,,,
,,,,,,,,,,,,,,,,,jUXDHrfV,igen,igen,2020-07-10_11h51.39.253,terkepesz_online,2020.1.3,Win32,60,,,,,,,,,,,,,,,f,,,,,,,,OLP,2,stimuli/fractals/69a.jpg,-225,-75,4000,,0.60909,,,0,27,27,27,1,196,3,0,stimuli/fractals/69c.jpg,stimuli/fractals/69a.jpg,stimuli/fractals/69b.jpg,-225,-75,-225,75,-225,-225,375,-225,,,,,,,,,,,,,,,,,,,,,,,,,,,,,,,,,,,,,,,,,,,,,,,,,,,,,,,,,,,,,,,,,,,,,,,,,,,,,,,,,,,,,,,,
,,,,,,,,,,,,,,,,,jUXDHrfV,igen,igen,2020-07-10_11h51.39.253,terkepesz_online,2020.1.3,Win32,60,,,,,,,,,,,,,,,f,,,,,,,,ERP,2,stimuli/fractals/73b.jpg,-375,-75,500,,0.556295,,,0,28,28,28,1,197,3,0,stimuli/fractals/73b.jpg,stimuli/fractals/73c.jpg,stimuli/fractals/73a.jpg,-375,-75,-375,-225,-225,-75,375,225,,,,,,,,,,,,,,,,,,,,,,,,,,,,,,,,,,,,,,,,,,,,,,,,,,,,,,,,,,,,,,,,,,,,,,,,,,,,,,,,,,,,,,,,
,,,,,,,,,,,,,,,,,jUXDHrfV,igen,igen,2020-07-10_11h51.39.253,terkepesz_online,2020.1.3,Win32,60,,,,,,,,,,,,,,,f,,,,,,,,LLP,2,stimuli/fractals/131a.jpg,-75,-75,2000,,1.16008,,,0,29,29,29,1,198,3,0,stimuli/fractals/131a.jpg,stimuli/fractals/131c.jpg,stimuli/fractals/131b.jpg,75,-75,-75,-75,75,-225,-375,225,,,,,,,,,,,,,,,,,,,,,,,,,,,,,,,,,,,,,,,,,,,,,,,,,,,,,,,,,,,,,,,,,,,,,,,,,,,,,,,,,,,,,,,,
,,,,,,,,,,,,,,,,,jUXDHrfV,igen,igen,2020-07-10_11h51.39.253,terkepesz_online,2020.1.3,Win32,60,,,,,,,,,,,,,,,j,,,,,,,,OLP,1,stimuli/fractals/48a.jpg,-375,225,2000,,1.058515,,,0,30,30,30,1,199,3,2,stimuli/fractals/48a.jpg,stimuli/fractals/48b.jpg,stimuli/fractals/48c.jpg,-375,225,-225,225,-375,75,375,225,,,,,,,,,,,,,,,,,,,,,,,,,,,,,,,,,,,,,,,,,,,,,,,,,,,,,,,,,,,,,,,,,,,,,,,,,,,,,,,,,,,,,,,,
,,,,,,,,,,,,,,,,,jUXDHrfV,igen,igen,2020-07-10_11h51.39.253,terkepesz_online,2020.1.3,Win32,60,,,,,,,,,,,,,,,f,,,,,,,,OLP,2,stimuli/fractals/118c.jpg,375,75,1000,,1.78527,,,0,31,31,31,1,200,3,0,stimuli/fractals/118b.jpg,stimuli/fractals/118c.jpg,stimuli/fractals/118a.jpg,375,75,225,75,375,-75,-225,225,,,,,,,,,,,,,,,,,,,,,,,,,,,,,,,,,,,,,,,,,,,,,,,,,,,,,,,,,,,,,,,,,,,,,,,,,,,,,,,,,,,,,,,,
,,,,,,,,,,,,,,,,,jUXDHrfV,igen,igen,2020-07-10_11h51.39.253,terkepesz_online,2020.1.3,Win32,60,,,,,,,,,,,,,,,f,,,,,,,,ERP,1,stimuli/fractals/103b.jpg,225,-75,4000,,1.051955,,,0,32,32,32,1,201,3,3,stimuli/fractals/103b.jpg,stimuli/fractals/103c.jpg,stimuli/fractals/103a.jpg,225,-75,75,-75,225,-225,-375,-225,,,,,,,,,,,,,,,,,,,,,,,,,,,,,,,,,,,,,,,,,,,,,,,,,,,,,,,,,,,,,,,,,,,,,,,,,,,,,,,,,,,,,,,,
,,,,,,,,,,,,,,,,,jUXDHrfV,igen,igen,2020-07-10_11h51.39.253,terkepesz_online,2020.1.3,Win32,60,,,,,,,,,,,,,,,j,,,,,,,,OLP,2,stimuli/fractals/48b.jpg,-375,225,2000,,1.012835,,,0,33,33,33,1,202,3,0,stimuli/fractals/48a.jpg,stimuli/fractals/48b.jpg,stimuli/fractals/48c.jpg,-375,225,-225,225,-375,75,375,225,,,,,,,,,,,,,,,,,,,,,,,,,,,,,,,,,,,,,,,,,,,,,,,,,,,,,,,,,,,,,,,,,,,,,,,,,,,,,,,,,,,,,,,,
,,,,,,,,,,,,,,,,,jUXDHrfV,igen,igen,2020-07-10_11h51.39.253,terkepesz_online,2020.1.3,Win32,60,,,,,,,,,,,,,,,f,,,,,,,,ERP,1,stimuli/fractals/101b.jpg,75,75,1000,,0.77859,,,0,34,34,34,1,203,3,3,stimuli/fractals/101b.jpg,stimuli/fractals/101c.jpg,stimuli/fractals/101a.jpg,75,75,-75,75,225,75,-375,-225,,,,,,,,,,,,,,,,,,,,,,,,,,,,,,,,,,,,,,,,,,,,,,,,,,,,,,,,,,,,,,,,,,,,,,,,,,,,,,,,,,,,,,,,
,,,,,,,,,,,,,,,,,jUXDHrfV,igen,igen,2020-07-10_11h51.39.253,terkepesz_online,2020.1.3,Win32,60,,,,,,,,,,,,,,,f,,,,,,,,OLP,1,stimuli/fractals/89c.jpg,75,-225,2000,,0.722625,,,0,35,35,35,1,204,3,4,stimuli/fractals/89c.jpg,stimuli/fractals/89a.jpg,stimuli/fractals/89b.jpg,75,-225,75,-75,225,-225,375,225,,,,,,,,,,,,,,,,,,,,,,,,,,,,,,,,,,,,,,,,,,,,,,,,,,,,,,,,,,,,,,,,,,,,,,,,,,,,,,,,,,,,,,,,
,,,,,,,,,,,,,,,,,jUXDHrfV,igen,igen,2020-07-10_11h51.39.253,terkepesz_online,2020.1.3,Win32,60,,,,,,,,,,,,,,,f,,,,,,,,ERP,2,stimuli/fractals/103b.jpg,225,-75,2000,,1.0358,,,0,36,36,36,1,205,3,0,stimuli/fractals/103b.jpg,stimuli/fractals/103c.jpg,stimuli/fractals/103a.jpg,225,-75,75,-75,225,-225,-375,-225,,,,,,,,,,,,,,,,,,,,,,,,,,,,,,,,,,,,,,,,,,,,,,,,,,,,,,,,,,,,,,,,,,,,,,,,,,,,,,,,,,,,,,,,
,,,,,,,,,,,,,,,,,jUXDHrfV,igen,igen,2020-07-10_11h51.39.253,terkepesz_online,2020.1.3,Win32,60,,,,,,,,,,,,,,,j,,,,,,,,LLP,1,stimuli/fractals/16c.jpg,-75,-225,7000,,1.317295,,,0,37,37,37,1,206,3,1,stimuli/fractals/16c.jpg,stimuli/fractals/16b.jpg,stimuli/fractals/16a.jpg,-75,-225,-75,-75,-225,-225,375,225,,,,,,,,,,,,,,,,,,,,,,,,,,,,,,,,,,,,,,,,,,,,,,,,,,,,,,,,,,,,,,,,,,,,,,,,,,,,,,,,,,,,,,,,
,,,,,,,,,,,,,,,,,jUXDHrfV,igen,igen,2020-07-10_11h51.39.253,terkepesz_online,2020.1.3,Win32,60,,,,,,,,,,,,,,,f,,,,,,,,ERP,2,stimuli/fractals/101b.jpg,75,75,6000,,0.6794,,,0,38,38,38,1,207,3,0,stimuli/fractals/101b.jpg,stimuli/fractals/101c.jpg,stimuli/fractals/101a.jpg,75,75,-75,75,225,75,-375,-225,,,,,,,,,,,,,,,,,,,,,,,,,,,,,,,,,,,,,,,,,,,,,,,,,,,,,,,,,,,,,,,,,,,,,,,,,,,,,,,,,,,,,,,,
,,,,,,,,,,,,,,,,,jUXDHrfV,igen,igen,2020-07-10_11h51.39.253,terkepesz_online,2020.1.3,Win32,60,,,,,,,,,,,,,,,f,,,,,,,,LLP,2,stimuli/fractals/16c.jpg,-75,-75,2000,,1.614655,,,0,39,39,39,1,208,3,0,stimuli/fractals/16c.jpg,stimuli/fractals/16b.jpg,stimuli/fractals/16a.jpg,-75,-225,-75,-75,-225,-225,375,225,,,,,,,,,,,,,,,,,,,,,,,,,,,,,,,,,,,,,,,,,,,,,,,,,,,,,,,,,,,,,,,,,,,,,,,,,,,,,,,,,,,,,,,,
,,,,,,,,,,,,,,,,,jUXDHrfV,igen,igen,2020-07-10_11h51.39.253,terkepesz_online,2020.1.3,Win32,60,,,,,,,,,,,,,,,j,,,,,,,,OLP,2,stimuli/fractals/89a.jpg,75,-225,6000,,1.011915,,,0,40,40,40,1,209,3,0,stimuli/fractals/89c.jpg,stimuli/fractals/89a.jpg,stimuli/fractals/89b.jpg,75,-225,75,-75,225,-225,375,225,,,,,,,,,,,,,,,,,,,,,,,,,,,,,,,,,,,,,,,,,,,,,,,,,,,,,,,,,,,,,,,,,,,,,,,,,,,,,,,,,,,,,,,,
,,,,,,,,,,,,,,,,,jUXDHrfV,igen,igen,2020-07-10_11h51.39.253,terkepesz_online,2020.1.3,Win32,60,,,,,,,,,,,,,,,f,,,,,,,,BL,0,stimuli/fractals/64a.jpg,225,-75,3000,,1.456625,,,0,41,41,41,1,210,3,0,stimuli/fractals/64a.jpg,stimuli/fractals/64b.jpg,stimuli/fractals/64c.jpg,225,-75,225,75,75,-75,-375,-225,,,,,,,,,,,,,,,,,,,,,,,,,,,,,,,,,,,,,,,,,,,,,,,,,,,,,,,,,,,,,,,,,,,,,,,,,,,,,,,,,,,,,,,,
,,,,,,,,,,,,,,,,,jUXDHrfV,igen,igen,2020-07-10_11h51.39.253,terkepesz_online,2020.1.3,Win32,60,,,,,,,,,,,,,,,f,,,,,,,,ERP,1,stimuli/fractals/128b.jpg,225,-225,1000,,1.073205,,,0,42,42,42,1,211,3,2,stimuli/fractals/128b.jpg,stimuli/fractals/128a.jpg,stimuli/fractals/128c.jpg,225,-225,225,-75,375,-225,-375,-75,,,,,,,,,,,,,,,,,,,,,,,,,,,,,,,,,,,,,,,,,,,,,,,,,,,,,,,,,,,,,,,,,,,,,,,,,,,,,,,,,,,,,,,,
,,,,,,,,,,,,,,,,,jUXDHrfV,igen,igen,2020-07-10_11h51.39.253,terkepesz_online,2020.1.3,Win32,60,,,,,,,,,,,,,,,j,,,,,,,,OLP,1,stimuli/fractals/61c.jpg,75,-225,2000,,1.05956,,,0,43,43,43,1,212,3,2,stimuli/fractals/61c.jpg,stimuli/fractals/61b.jpg,stimuli/fractals/61a.jpg,75,-225,225,-225,-75,-225,-375,225,,,,,,,,,,,,,,,,,,,,,,,,,,,,,,,,,,,,,,,,,,,,,,,,,,,,,,,,,,,,,,,,,,,,,,,,,,,,,,,,,,,,,,,,
,,,,,,,,,,,,,,,,,jUXDHrfV,igen,igen,2020-07-10_11h51.39.253,terkepesz_online,2020.1.3,Win32,60,,,,,,,,,,,,,,,f,,,,,,,,OLP,1,stimuli/fractals/31a.jpg,225,225,2000,,0.831255,,,0,44,44,44,1,213,3,3,stimuli/fractals/31a.jpg,stimuli/fractals/31b.jpg,stimuli/fractals/31c.jpg,225,225,375,225,225,75,-375,-225,,,,,,,,,,,,,,,,,,,,,,,,,,,,,,,,,,,,,,,,,,,,,,,,,,,,,,,,,,,,,,,,,,,,,,,,,,,,,,,,,,,,,,,,
,,,,,,,,,,,,,,,,,jUXDHrfV,igen,igen,2020-07-10_11h51.39.253,terkepesz_online,2020.1.3,Win32,60,,,,,,,,,,,,,,,f,,,,,,,,ERP,2,stimuli/fractals/128b.jpg,225,-225,1000,,1.4424,,,0,45,45,45,1,214,3,0,stimuli/fractals/128b.jpg,stimuli/fractals/128a.jpg,stimuli/fractals/128c.jpg,225,-225,225,-75,375,-225,-375,-75,,,,,,,,,,,,,,,,,,,,,,,,,,,,,,,,,,,,,,,,,,,,,,,,,,,,,,,,,,,,,,,,,,,,,,,,,,,,,,,,,,,,,,,,
,,,,,,,,,,,,,,,,,jUXDHrfV,igen,igen,2020-07-10_11h51.39.253,terkepesz_online,2020.1.3,Win32,60,,,,,,,,,,,,,,,j,,,,,,,,OLP,2,stimuli/fractals/61b.jpg,75,-225,1000,,0.860465,,,0,46,46,46,1,215,3,0,stimuli/fractals/61c.jpg,stimuli/fractals/61b.jpg,stimuli/fractals/61a.jpg,75,-225,225,-225,-75,-225,-375,225,,,,,,,,,,,,,,,,,,,,,,,,,,,,,,,,,,,,,,,,,,,,,,,,,,,,,,,,,,,,,,,,,,,,,,,,,,,,,,,,,,,,,,,,
,,,,,,,,,,,,,,,,,jUXDHrfV,igen,igen,2020-07-10_11h51.39.253,terkepesz_online,2020.1.3,Win32,60,,,,,,,,,,,,,,,f,,,,,,,,ERP,1,stimuli/fractals/84c.jpg,225,-225,5000,,0.882105,,,0,47,47,47,1,216,3,3,stimuli/fractals/84c.jpg,stimuli/fractals/84a.jpg,stimuli/fractals/84b.jpg,225,-225,75,-225,375,-225,-375,-75,,,,,,,,,,,,,,,,,,,,,,,,,,,,,,,,,,,,,,,,,,,,,,,,,,,,,,,,,,,,,,,,,,,,,,,,,,,,,,,,,,,,,,,,
,,,,,,,,,,,,,,,,,jUXDHrfV,igen,igen,2020-07-10_11h51.39.253,terkepesz_online,2020.1.3,Win32,60,,,,,,,,,,,,,,,f,,,,,,,,OLP,2,stimuli/fractals/31b.jpg,225,225,500,,0.75118,,,0,48,48,48,1,217,3,0,stimuli/fractals/31a.jpg,stimuli/fractals/31b.jpg,stimuli/fractals/31c.jpg,225,225,375,225,225,75,-375,-225,,,,,,,,,,,,,,,,,,,,,,,,,,,,,,,,,,,,,,,,,,,,,,,,,,,,,,,,,,,,,,,,,,,,,,,,,,,,,,,,,,,,,,,,
,,,,,,,,,,,,,,,,,jUXDHrfV,igen,igen,2020-07-10_11h51.39.253,terkepesz_online,2020.1.3,Win32,60,,,,,,,,,,,,,,,j,,,,,,,,ERP,1,stimuli/fractals/125a.jpg,-225,225,1000,,0.91429,,,0,49,49,49,1,218,3,5,stimuli/fractals/125a.jpg,stimuli/fractals/125b.jpg,stimuli/fractals/125c.jpg,-225,225,-375,225,-75,225,375,75,,,,,,,,,,,,,,,,,,,,,,,,,,,,,,,,,,,,,,,,,,,,,,,,,,,,,,,,,,,,,,,,,,,,,,,,,,,,,,,,,,,,,,,,
,,,,,,,,,,,,,,,,,jUXDHrfV,igen,igen,2020-07-10_11h51.39.253,terkepesz_online,2020.1.3,Win32,60,,,,,,,,,,,,,,,f,,,,,,,,OLP,1,stimuli/fractals/2c.jpg,75,-225,4000,,0.762835,,,0,50,50,50,1,219,3,1,stimuli/fractals/2c.jpg,stimuli/fractals/2b.jpg,stimuli/fractals/2a.jpg,75,-225,-75,-225,75,-75,-375,225,,,,,,,,,,,,,,,,,,,,,,,,,,,,,,,,,,,,,,,,,,,,,,,,,,,,,,,,,,,,,,,,,,,,,,,,,,,,,,,,,,,,,,,,
,,,,,,,,,,,,,,,,,jUXDHrfV,igen,igen,2020-07-10_11h51.39.253,terkepesz_online,2020.1.3,Win32,60,,,,,,,,,,,,,,,f,,,,,,,,ERP,2,stimuli/fractals/84c.jpg,225,-225,1000,,0.82291,,,0,51,51,51,1,220,3,0,stimuli/fractals/84c.jpg,stimuli/fractals/84a.jpg,stimuli/fractals/84b.jpg,225,-225,75,-225,375,-225,-375,-75,,,,,,,,,,,,,,,,,,,,,,,,,,,,,,,,,,,,,,,,,,,,,,,,,,,,,,,,,,,,,,,,,,,,,,,,,,,,,,,,,,,,,,,,
