Question,Answer,CorrectResponse,CorrectAnswer,IncorrectAnswer,InfoRepeated,Task,TrialType,StimType,Order,CurrentImage,CurrentX,CurrentY,Jitter,Section,comprehension_questions_1.thisRepN,comprehension_questions_1.thisTrialN,comprehension_questions_1.thisN,comprehension_questions_1.thisIndex,comprehension_questions_2.thisRepN,comprehension_questions_2.thisTrialN,comprehension_questions_2.thisN,comprehension_questions_2.thisIndex,enc_practice_trials.thisRepN,enc_practice_trials.thisTrialN,enc_practice_trials.thisN,enc_practice_trials.thisIndex,experiment_information_text.started,experiment_information_text.stopped,experiment_information_key.keys,experiment_information_key.rt,experiment_information_key.started,experiment_information_key.stopped,experiment_information_continue.started,experiment_information_continue.stopped,comprehension_question_text.started,comprehension_question_text.stopped,comprehension_question_answers.started,comprehension_question_answers.stopped,comprehension_key.keys,comprehension_key.corr,comprehension_key.rt,comprehension_key.started,comprehension_key.stopped,comprehension_feedback_text.started,comprehension_feedback_text.stopped,comprehension_continue_key.keys,comprehension_continue_key.rt,comprehension_continue_key.started,comprehension_continue_key.stopped,comprehension_continue_text.started,comprehension_continue_text.stopped,comprehension_repeat_text.started,comprehension_repeat_text.stopped,lab_thanks.started,lab_thanks.stopped,lab_key.keys,lab_key.rt,lab_key.started,lab_key.stopped,lab_introduction_continue.started,lab_introduction_continue.stopped,start_encoding_text.started,start_encoding_text.stopped,enc_instructions_1_text.started,enc_instructions_1_text.stopped,enc_instructions_1_image.started,enc_instructions_1_image.stopped,enc_instructions_1_key.keys,enc_instructions_1_key.rt,enc_instructions_1_key.started,enc_instructions_1_key.stopped,instructions_1_continue.started,instructions_1_continue.stopped,enc_instructions_2_text.started,enc_instructions_2_text.stopped,enc_instructions_2_image.started,enc_instructions_2_image.stopped,enc_instructions_2_key.keys,enc_instructions_2_key.rt,enc_instructions_2_key.started,enc_instructions_2_key.stopped,instructions_2_continue.started,instructions_2_continue.stopped,enc_instructions_3_text.started,enc_instructions_3_text.stopped,enc_instructions_3_key.keys,enc_instructions_3_key.rt,enc_instructions_3_key.started,enc_instructions_3_key.stopped,enc_instructions_3_continue.started,enc_instructions_3_continue.stopped,start_practice_text.started,start_practice_text.stopped,enc_fx_map.started,enc_fx_map.stopped,enc_fx_cross.started,enc_fx_cross.stopped,enc_fx_key.keys,enc_fx_key.started,enc_fx_key.stopped,enc_trial_map.started,enc_trial_map.stopped,enc_trial_main_image.started,enc_trial_main_image.stopped,enc_trial_key.keys,enc_trial_key.started,enc_trial_key.stopped,enc_practice_feedback_map.started,enc_practice_feedback_map.stopped,enc_practice_feedback_image.started,enc_practice_feedback_image.stopped,enc_practice_feedback_text.started,enc_practice_feedback_text.stopped,enc_trial_key.rt,A feltételeket (https://sites.google.com/view/magnesesrezonancia/vizsgálatok/online-vizsgálat) elolvastam és megértettem. (igen/nem)*,Az adatkezelési tájékoztatót (https://sites.google.com/view/magnesesrezonancia/vizsgálatok/online-vizsgálat) elolvastam és megértettem. (igen/nem)*,Nem,Kor,Oktatás éve,date,expName,psychopyVersion,frameRate,
,,,,,,,,,,,,,,,,,,,,,,,,,,,4.195701818000089,None,right,1.1254586789982568,14.192629524997756,None,,,,,,,,,,,,,,,,,,,,,,,,,,,,,,,,,,,,,,,,,,,,,,,,,,,,,,,,,,,,,,,,,,,,,,,,,,,,,,,,,,,,,,,,2020_máj_13_1911,TRK-online,2020.1.0,809.1793959712063,
Mennyi időt vesz igénybe a vizsgálat? Válaszát jelölje a megadott billentyűk egyikével. ,D:20-30 perc    F: 50-60 perc    J: 70-80 perc,b,A helyes válasz: 50-60 perc,A helyes válasz: 50-60 perc,"Kérjük, figyelmesen olvassa végig az alábbi instrukciókat!

A vizsgálathoz használjon asztali számítógépet vagy laptopot. A vizsgálat nem végezhető el mobil eszközön, például okostelefonon vagy táblagépen. A feladatok elvégzéséhez szüksége lesz működő billentyűzetre és stabil internet kapcsolatra. Az optimális eredmény elérése érdekében Google Chrome, Firefox vagy Safari böngésző használata javasolt. Kérjük, használja a teljes képernyő módot.
A kísérlet teljes körű, zavartalan figyelmet igényel. A vizsgálat két feladatból áll, és elvégzése 50-60 percet vesz igénybe. Bizonyosodjon meg róla, hogy elég időt tud szánni a vizsgálatra. Ügyeljen arra, hogy telefont, vagy más eszközöket közben ne használjon, és kerülje a másokkal való interakciót.

A vizsgálat két feladatból áll, melyek során absztrakt képeket kell kiválogatnia a megadott szempontok szerint. A feladatok alatt és a feladatok között is lesz lehetősége rövid pihenőt tartani. ",,,,,,,,,,0,0,0,0,,,,,,,,,,,,,,,14.192629524997756,None,15.341785290998814,None,15.341785290998814,None,j,0,7.501871283999208,16.339437662998535,None,23.852183233000687,None,right,12.244189603999985,26.40596466900024,None,26.40596466900024,None,25.40740648999781,None,,,,,,,,,,,,,,,,,,,,,,,,,,,,,,,,,,,,,,,,,,,,,,,,,,,,,,,,,,,,,,,,,,,2020_máj_13_1911,TRK-online,2020.1.0,809.1793959712063,
"Megbizonyosodott róla, hogy biztosítottak a vizsgálat elvégzéséhez szükséges feltételek? Válaszát jelölje a megadott billentyűk egyikével. ","S: Nem, nincs lehetőségem nyugodt körülmények között elvégezni a feladatot.    D: Igen, körülményeim nyugodtak, az internet kapcsolat stabil, a feladatokra tudok szánni 60 percet.",d,Köszönjük!,"Bizonyosodjon meg róla, hogy elég időt tud a vizsgálatra szánni. ","Kérjük, figyelmesen olvassa végig az alábbi instrukciókat!

A vizsgálathoz használjon asztali számítógépet vagy laptopot. A vizsgálat nem végezhető el mobil eszközön, például okostelefonon vagy táblagépen. A feladatok elvégzéséhez szüksége lesz működő billentyűzetre és stabil internet kapcsolatra. Az optimális eredmény elérése érdekében Google Chrome, Firefox vagy Safari böngésző használata javasolt. Kérjük, használja a teljes képernyő módot.
A kísérlet teljes körű, zavartalan figyelmet igényel. A vizsgálat két feladatból áll, és elvégzése 50-60 percet vesz igénybe. Bizonyosodjon meg róla, hogy elég időt tud szánni a vizsgálatra. Ügyeljen arra, hogy telefont, vagy más eszközöket közben ne használjon, és kerülje a másokkal való interakciót.

A vizsgálat két feladatból áll, melyek során absztrakt képeket kell kiválogatnia a megadott szempontok szerint. A feladatok alatt és a feladatok között is lesz lehetősége rövid pihenőt tartani. ",,,,,,,,,,0,1,1,1,,,,,,,,,,,,,,,,,38.67891499799953,None,38.67891499799953,None,d,1,5.6932682229999045,39.67728566699952,None,45.37819421399763,None,None,,47.87685523969812,None,47.87685523969812,None,46.87915055099802,46.87915055099802,,,,,,,,,,,,,,,,,,,,,,,,,,,,,,,,,,,,,,,,,,,,,,,,,,,,,,,,,,,,,,,,,,,2020_máj_13_1911,TRK-online,2020.1.0,809.1793959712063,
,,,,,,,,,,,,,,,,,,,,,,,,,,,,,,,,,,,,,,,,,,,,,,,,,,,,,,47.879057171998284,None,right,8.74827554699732,47.879057171998284,None,,,,,,,,,,,,,,,,,,,,,,,,,,,,,,,,,,,,,,,,,,,,,,,,,,,,,,,,,,,,,2020_máj_13_1911,TRK-online,2020.1.0,809.1793959712063,
,,,,,,,,,,,,,,,,,,,,,,,,,,,,,,,,,,,,,,,,,,,,,,,,,,,,,,,,,,,,48.87675779499841,None,56.639593805000914,None,58.14203877299951,None,58.14203877299951,None,right,0.5415993879978487,63.13887801199962,None,,,,,,,,,,,,,,,,,,,,,,,,,,,,,,,,,,,,,,,,,,,,,,,,,2020_máj_13_1911,TRK-online,2020.1.0,809.1793959712063,
,,,,,,,,,,,,,,,,,,,,,,,,,,,,,,,,,,,,,,,,,,,,,,,,,,,,,,,,,,,,,,,,,,,,,,,,63.13887801199962,None,63.684359883998695,None,63.684359883998695,None,right,0.5737586360010027,68.68395954099833,None,,,,,,,,,,,,,,,,,,,,,,,,,,,,,,,,,,,,,,,2020_máj_13_1911,TRK-online,2020.1.0,809.1793959712063,
,,,,,,,,,,,,,,,,,,,,,,,,,,,,,,,,,,,,,,,,,,,,,,,,,,,,,,,,,,,,,,,,,,,,,,,,,,,,,,,,,,68.68395954099833,None,69.25995210499968,None,right,9.256475414000306,74.25833742900068,None,,,,,,,,,,,,,,,,,,,,,,,,,,,,,,,2020_máj_13_1911,TRK-online,2020.1.0,809.1793959712063,
"Mely billentyű jelzi azokat a képeket, amelyek nem maradhatnak a bemutatott helyen?",D billentyű    F billentyű   J billentyű    K billentyű,f,A helyes válasz: F billentyű,A helyes válasz: F billentyű,"Az első feladat nagyjából 20 percet vesz igénybe, közben két rövid szünettel. Ügyeljen, hogy ezek a szünetek ne legyenek 2 percnél hosszabbak. 

A 'J' billentyűvel jelölje azokat a képeket, amelyek maradhatnak a galériában, a bemutatott helyen.

Az 'F' billentyűvel jelölje a képeket, amelyek nem maradnak kiállítva a bemutatott helyen. ",,,,,,,,,,,,,,0,0,0,1,,,,,,,,,,,,,83.54105128899755,None,83.54105128899755,None,d,0,4.945900447997701,84.5391478399979,None,89.49715607599865,None,right,19.15960587200243,92.02427610999803,None,92.02427610999803,None,91.02669597099884,None,,,,,,,,,,,,,,,,,,,,,,,,,,,,,,,,,,,,,74.25833742900068,None,,,,,,,,,,,,,,,,,,,,,,,,,,,,,2020_máj_13_1911,TRK-online,2020.1.0,809.1793959712063,
"Mely billentyű jelzi azokat a képeket, amelyek maradhatnak a galériában, a bemutatott helyen?",D billentyű    F billentyű   J billentyű    K billentyű,j,A helyes válasz: J billentyű.,A helyes válasz: J billentyű.,"Az első feladat nagyjából 20 percet vesz igénybe, közben két rövid szünettel. Ügyeljen, hogy ezek a szünetek ne legyenek 2 percnél hosszabbak. 

A 'J' billentyűvel jelölje azokat a képeket, amelyek maradhatnak a galériában, a bemutatott helyen.

Az 'F' billentyűvel jelölje a képeket, amelyek nem maradnak kiállítva a bemutatott helyen. ",,,,,,,,,,,,,,0,1,1,0,,,,,,,,,,,,,111.20646385299915,None,111.20646385299915,None,j,1,5.637863453997852,112.2047571740004,None,117.85122977599895,None,None,,120.35011330069793,None,120.35011330069793,None,119.35243858499962,119.35243858499962,,,,,,,,,,,,,,,,,,,,,,,,,,,,,,,,,,,,,,,,,,,,,,,,,,,,,,,,,,,,,,,,,,,2020_máj_13_1911,TRK-online,2020.1.0,809.1793959712063,
,,,,,,EncodingPractice,-,-,1,stimuli/fractals/177b.jpg,300.0,0.0,800,Encoding,,,,,,,,,0,0,0,4,,,,,,,,,,,,,,,,,,,,,,,,,,,,,,,,,,,,,,,,,,,,,,,,,,,,,,,,,,,,,,,,,,120.3519723299978,None,121.36428365399843,None,121.36428365399843,None,None,121.36428365399843,None,122.24452091700005,None,122.24452091700005,None,None,122.24452091700005,None,125.24544288199831,None,125.24544288199831,None,125.24544288199831,None,,,,,,,2020_máj_13_1911,TRK-online,2020.1.0,809.1793959712063,
,,,,,,EncodingPractice,LOC,FOIL,1,stimuli/fractals/148b.jpg,212.1320344,212.1320344,1000,Encoding,,,,,,,,,0,1,1,2,,,,,,,,,,,,,,,,,,,,,,,,,,,,,,,,,,,,,,,,,,,,,,,,,,,,,,,,,,,,,,,,,,,,126.17386677700051,None,126.17386677700051,None,None,126.17386677700051,None,127.24275753599795,None,127.24275753599795,None,f,127.24275753599795,None,130.24884382500022,None,130.24884382500022,None,130.24884382500022,None,0.7778297980003117,,,,,,2020_máj_13_1911,TRK-online,2020.1.0,809.1793959712063,
,,,,,,EncodingPractice,OBJ,TARGET,1,stimuli/fractals/167a.jpg,300.0,0.0,500,Encoding,,,,,,,,,0,2,2,1,,,,,,,,,,,,,,,,,,,,,,,,,,,,,,,,,,,,,,,,,,,,,,,,,,,,,,,,,,,,,,,,,,,,131.179808375,None,131.179808375,None,None,131.179808375,None,131.74903909899876,None,131.74903909899876,None,f,131.74903909899876,None,134.75302981599816,None,134.75302981599816,None,134.75302981599816,None,0.7313505790007184,,,,,,2020_máj_13_1911,TRK-online,2020.1.0,809.1793959712063,
,,,,,,EncodingPractice,LOC,TARGET,1,stimuli/fractals/166a.jpg,-300.0,0.0,1500,Encoding,,,,,,,,,0,3,3,0,,,,,,,,,,,,,,,,,,,,,,,,,,,,,,,,,,,,,,,,,,,,,,,,,,,,,,,,,,,,,,,,,,,,135.68654418799997,None,135.68654418799997,None,None,135.68654418799997,None,137.25493676100086,None,137.25493676100086,None,j,137.25493676100086,None,140.26259158500034,None,140.26259158500034,None,140.26259158500034,None,0.8319129209994571,,,,,,2020_máj_13_1911,TRK-online,2020.1.0,809.1793959712063,
,,,,,,EncodingPractice,LOC,LURE,1,stimuli/fractals/159a.jpg,0.0,300.0,5000,Encoding,,,,,,,,,0,4,4,3,,,,,,,,,,,,,,,,,,,,,,,,,,,,,,,,,,,,,,,,,,,,,,,,,,,,,,,,,,,,,,,,,,,,141.19589804899806,None,141.19589804899806,None,None,141.19589804899806,None,146.2706373559995,None,146.2706373559995,None,None,146.2706373559995,None,149.27808831899893,None,149.27808831899893,None,149.27808831899893,None,,,,,,,2020_máj_13_1911,TRK-online,2020.1.0,809.1793959712063,
